delay,freq,condition,trials.thisRepN,trials.thisTrialN,trials.thisN,trials.thisIndex,polygon.started,polygon_2.started,key_resp.started,polygon.stopped,key_resp.keys,key_resp.rt,sound_1.started,text.started,textbox.started,button.started,textbox.text,button.numClicks,button.timesOn,button.timesOff,sound_1.stopped,participant,session,date,expName,psychopyVersion,frameRate,
0.4,400.0,unexp,0,0,0,1,17.954521400039084,18.92314880003687,18.92314880003687,18.95641310000792,space,0.10562169994227588,19.456272220017855,19.764709200011566,19.764709200011566,19.764709200011566,40,1,[7.500491500017233],[7.50050960003864],,023697,001,2022-11-08_16h01.02.077,tutorial07,2022.2.2,60.03871294935459,
0.1,1000.0,exp,0,1,1,9,27.25608960003592,28.256189200095832,28.256189200095832,28.256189200095832,space,1.4414121999870986,29.82260332001606,30.122899700072594,30.122899700072594,30.122899700072594,100,2,"[7.500491500017233, 8.148237899993546]","[7.50050960003864, 8.148248599958606]",30.122899700072594,023697,001,2022-11-08_16h01.02.077,tutorial07,2022.2.2,60.03871294935459,
0.4,1000.0,exp,0,2,2,7,38.27240310003981,39.272417600033805,39.272417600033805,39.272417600033805,space,0.7509365000296384,40.45545612009009,40.75585760001559,40.75585760001559,40.75585760001559,20,3,"[7.500491500017233, 8.148237899993546, 4.632625599973835]","[7.50050960003864, 8.148248599958606, 4.632638300070539]",,023697,001,2022-11-08_16h01.02.077,tutorial07,2022.2.2,60.03871294935459,
0.7,400.0,unexp,0,3,3,2,45.38870280003175,46.38862770004198,46.38862770004198,46.38862770004198,space,0.7551178000867367,47.87186452002497,48.171652400051244,48.171652400051244,48.171652400051244,15,4,"[7.500491500017233, 8.148237899993546, 4.632625599973835, 6.048216600087471]","[7.50050960003864, 8.148248599958606, 4.632638300070539, 6.048224200028926]",,023697,001,2022-11-08_16h01.02.077,tutorial07,2022.2.2,60.03871294935459,
0.7,1000.0,exp,0,4,4,8,54.22177860001102,55.221709400066175,55.221709400066175,55.221709400066175,space,0.35500470001716167,56.30494251999771,56.60505050001666,56.60505050001666,56.60505050001666,50,5,"[7.500491500017233, 8.148237899993546, 4.632625599973835, 6.048216600087471, 9.614266699994914]","[7.50050960003864, 8.148248599958606, 4.632638300070539, 6.048224200028926, 9.614273000042886]",,023697,001,2022-11-08_16h01.02.077,tutorial07,2022.2.2,60.03871294935459,
0.1,1000.0,exp,0,5,5,3,66.22131600009743,67.22137390007265,67.22137390007265,67.22137390007265,space,1.4069444999331608,68.7545481200912,69.05451220006216,69.05451220006216,69.05451220006216,20,6,"[7.500491500017233, 8.148237899993546, 4.632625599973835, 6.048216600087471, 9.614266699994914, 5.6819542000303045]","[7.50050960003864, 8.148248599958606, 4.632638300070539, 6.048224200028926, 9.614273000042886, 5.6819653999991715]",69.05451220006216,023697,001,2022-11-08_16h01.02.077,tutorial07,2022.2.2,60.03871294935459,
0.7,1000.0,exp,0,6,6,5,74.73802290007006,75.73756620008498,75.73756620008498,75.73756620008498,space,0.8442988999886438,77.30411352008814,77.60424670006614,77.60424670006614,77.60424670006614,80,7,"[7.500491500017233, 8.148237899993546, 4.632625599973835, 6.048216600087471, 9.614266699994914, 5.6819542000303045, 4.5645972999045625]","[7.50050960003864, 8.148248599958606, 4.632638300070539, 6.048224200028926, 9.614273000042886, 5.6819653999991715, 4.564603499951772]",,023697,001,2022-11-08_16h01.02.077,tutorial07,2022.2.2,60.03871294935459,
0.1,1000.0,exp,0,7,7,6,82.17052710009739,83.17067070002668,83.17067070002668,83.17067070002668,space,0.9715686000417918,84.27064602008322,84.57061010005418,84.57061010005418,84.57061010005418,40,8,"[7.500491500017233, 8.148237899993546, 4.632625599973835, 6.048216600087471, 9.614266699994914, 5.6819542000303045, 4.5645972999045625, 5.898321399930865]","[7.50050960003864, 8.148248599958606, 4.632638300070539, 6.048224200028926, 9.614273000042886, 5.6819653999991715, 4.564603499951772, 5.898328999988735]",84.57061010005418,023697,001,2022-11-08_16h01.02.077,tutorial07,2022.2.2,60.03871294935459,
0.1,400.0,unexp,0,8,8,0,90.47045850008726,91.47032320010476,91.47032320010476,91.47032320010476,space,0.07471920002717525,91.67037892005173,91.97060880006757,91.97060880006757,91.97060880006757,20,9,"[7.500491500017233, 8.148237899993546, 4.632625599973835, 6.048216600087471, 9.614266699994914, 5.6819542000303045, 4.5645972999045625, 5.898321399930865, 2.965241799945943]","[7.50050960003864, 8.148248599958606, 4.632638300070539, 6.048224200028926, 9.614273000042886, 5.6819653999991715, 4.564603499951772, 5.898328999988735, 2.965251899906434]",91.97060880006757,023697,001,2022-11-08_16h01.02.077,tutorial07,2022.2.2,60.03871294935459,
0.4,1000.0,exp,0,9,9,4,94.93698390002828,95.93703860009555,95.93703860009555,95.93703860009555,space,0.6181009000865743,96.98678052007453,97.28688710008282,97.28688710008282,97.28688710008282,30,10,"[7.500491500017233, 8.148237899993546, 4.632625599973835, 6.048216600087471, 9.614266699994914, 5.6819542000303045, 4.5645972999045625, 5.898321399930865, 2.965241799945943, 2.3326427000574768]","[7.50050960003864, 8.148248599958606, 4.632638300070539, 6.048224200028926, 9.614273000042886, 5.6819653999991715, 4.564603499951772, 5.898328999988735, 2.965251899906434, 2.3326525000156835]",,023697,001,2022-11-08_16h01.02.077,tutorial07,2022.2.2,60.03871294935459,
0.7,1000.0,exp,0,10,10,11,99.6201088000089,100.62001710000914,100.62001710000914,100.62001710000914,space,4.171825399971567,105.51978412003955,105.81978770007845,105.81978770007845,105.81978770007845,50,11,"[7.500491500017233, 8.148237899993546, 4.632625599973835, 6.048216600087471, 9.614266699994914, 5.6819542000303045, 4.5645972999045625, 5.898321399930865, 2.965241799945943, 2.3326427000574768, 8.19838630000595]","[7.50050960003864, 8.148248599958606, 4.632638300070539, 6.048224200028926, 9.614273000042886, 5.6819653999991715, 4.564603499951772, 5.898328999988735, 2.965251899906434, 2.3326525000156835, 8.198397100088187]",,023697,001,2022-11-08_16h01.02.077,tutorial07,2022.2.2,60.03871294935459,
0.4,1000.0,exp,0,11,11,10,114.01949420000892,115.01937920006458,115.01937920006458,115.01937920006458,space,0.542992000002414,115.98598612007918,116.28640139999334,116.28640139999334,116.28640139999334,5,12,"[7.500491500017233, 8.148237899993546, 4.632625599973835, 6.048216600087471, 9.614266699994914, 5.6819542000303045, 4.5645972999045625, 5.898321399930865, 2.965241799945943, 2.3326427000574768, 8.19838630000595, 3.748666499974206]","[7.50050960003864, 8.148248599958606, 4.632638300070539, 6.048224200028926, 9.614273000042886, 5.6819653999991715, 4.564603499951772, 5.898328999988735, 2.965251899906434, 2.3326525000156835, 8.198397100088187, 3.7486757000442594]",,023697,001,2022-11-08_16h01.02.077,tutorial07,2022.2.2,60.03871294935459,
0.1,1000.0,exp,1,0,12,3,120.03589120006654,121.03594800003339,121.03594800003339,121.03594800003339,space,0.36237810004968196,121.51908422006527,121.81927269999869,121.81927269999869,121.81927269999869,10,13,"[7.500491500017233, 8.148237899993546, 4.632625599973835, 6.048216600087471, 9.614266699994914, 5.6819542000303045, 4.5645972999045625, 5.898321399930865, 2.965241799945943, 2.3326427000574768, 8.19838630000595, 3.748666499974206, 3.565124399960041]","[7.50050960003864, 8.148248599958606, 4.632638300070539, 6.048224200028926, 9.614273000042886, 5.6819653999991715, 4.564603499951772, 5.898328999988735, 2.965251899906434, 2.3326525000156835, 8.198397100088187, 3.7486757000442594, 3.5651323999045417]",,023697,001,2022-11-08_16h01.02.077,tutorial07,2022.2.2,60.03871294935459,
0.1,1000.0,exp,1,1,13,6,125.38579730002675,126.38575410004705,126.38575410004705,126.38575410004705,space,4.9286821000278,131.43540292001563,131.73560930008534,131.73560930008534,131.73560930008534,30,14,"[7.500491500017233, 8.148237899993546, 4.632625599973835, 6.048216600087471, 9.614266699994914, 5.6819542000303045, 4.5645972999045625, 5.898321399930865, 2.965241799945943, 2.3326427000574768, 8.19838630000595, 3.748666499974206, 3.565124399960041, 3.03186220000498]","[7.50050960003864, 8.148248599958606, 4.632638300070539, 6.048224200028926, 9.614273000042886, 5.6819653999991715, 4.564603499951772, 5.898328999988735, 2.965251899906434, 2.3326525000156835, 8.198397100088187, 3.7486757000442594, 3.5651323999045417, 3.031870000064373]",131.73560930008534,023697,001,2022-11-08_16h01.02.077,tutorial07,2022.2.2,60.03871294935459,
0.4,1000.0,exp,1,2,14,10,134.76875160005875,135.76875490008388,135.76875490008388,135.76875490008388,space,0.4449232999468222,136.63530832006364,136.93541300005745,136.93541300005745,136.93541300005745,2,15,"[7.500491500017233, 8.148237899993546, 4.632625599973835, 6.048216600087471, 9.614266699994914, 5.6819542000303045, 4.5645972999045625, 5.898321399930865, 2.965241799945943, 2.3326427000574768, 8.19838630000595, 3.748666499974206, 3.565124399960041, 3.03186220000498, 3.580949900089763]","[7.50050960003864, 8.148248599958606, 4.632638300070539, 6.048224200028926, 9.614273000042886, 5.6819653999991715, 4.564603499951772, 5.898328999988735, 2.965251899906434, 2.3326525000156835, 8.198397100088187, 3.7486757000442594, 3.5651323999045417, 3.031870000064373, 3.5809601000510156]",,023697,001,2022-11-08_16h01.02.077,tutorial07,2022.2.2,60.03871294935459,
0.7,1000.0,exp,1,3,15,8,140.51866240007803,141.51857130008284,141.51857130008284,141.51857130008284,space,0.3589630000060424,142.60169582000236,142.90181529999245,142.90181529999245,142.90181529999245,1,16,"[7.500491500017233, 8.148237899993546, 4.632625599973835, 6.048216600087471, 9.614266699994914, 5.6819542000303045, 4.5645972999045625, 5.898321399930865, 2.965241799945943, 2.3326427000574768, 8.19838630000595, 3.748666499974206, 3.565124399960041, 3.03186220000498, 3.580949900089763, 2.3322241000132635]","[7.50050960003864, 8.148248599958606, 4.632638300070539, 6.048224200028926, 9.614273000042886, 5.6819653999991715, 4.564603499951772, 5.898328999988735, 2.965251899906434, 2.3326525000156835, 8.198397100088187, 3.7486757000442594, 3.5651323999045417, 3.031870000064373, 3.5809601000510156, 2.332234000088647]",,023697,001,2022-11-08_16h01.02.077,tutorial07,2022.2.2,60.03871294935459,
0.7,400.0,unexp,1,4,16,2,145.23495390010066,146.2349176000571,146.2349176000571,146.2349176000571,space,0.26367389992810786,147.21809392004508,147.51834070007317,147.51834070007317,147.51834070007317,100,17,"[7.500491500017233, 8.148237899993546, 4.632625599973835, 6.048216600087471, 9.614266699994914, 5.6819542000303045, 4.5645972999045625, 5.898321399930865, 2.965241799945943, 2.3326427000574768, 8.19838630000595, 3.748666499974206, 3.565124399960041, 3.03186220000498, 3.580949900089763, 2.3322241000132635, 2.931673499988392]","[7.50050960003864, 8.148248599958606, 4.632638300070539, 6.048224200028926, 9.614273000042886, 5.6819653999991715, 4.564603499951772, 5.898328999988735, 2.965251899906434, 2.3326525000156835, 8.198397100088187, 3.7486757000442594, 3.5651323999045417, 3.031870000064373, 3.5809601000510156, 2.332234000088647, 2.931681700050831]",,023697,001,2022-11-08_16h01.02.077,tutorial07,2022.2.2,60.03871294935459,
0.4,400.0,unexp,1,5,17,1,150.4515345999971,151.45148849999532,151.45148849999532,151.45148849999532,space,3.3492521999869496,155.2178897200036,155.51795870007481,155.51795870007481,155.51795870007481,20,18,"[7.500491500017233, 8.148237899993546, 4.632625599973835, 6.048216600087471, 9.614266699994914, 5.6819542000303045, 4.5645972999045625, 5.898321399930865, 2.965241799945943, 2.3326427000574768, 8.19838630000595, 3.748666499974206, 3.565124399960041, 3.03186220000498, 3.580949900089763, 2.3322241000132635, 2.931673499988392, 2.032431099913083]","[7.50050960003864, 8.148248599958606, 4.632638300070539, 6.048224200028926, 9.614273000042886, 5.6819653999991715, 4.564603499951772, 5.898328999988735, 2.965251899906434, 2.3326525000156835, 8.198397100088187, 3.7486757000442594, 3.5651323999045417, 3.031870000064373, 3.5809601000510156, 2.332234000088647, 2.931681700050831, 2.032439099973999]",155.51795870007481,023697,001,2022-11-08_16h01.02.077,tutorial07,2022.2.2,60.03871294935459,
0.7,1000.0,exp,1,6,18,11,157.5512105000671,158.55120590003207,158.55120590003207,158.55120590003207,space,0.9961249999469146,160.26775012003492,160.56777060008608,160.56777060008608,160.56777060008608,40,19,"[7.500491500017233, 8.148237899993546, 4.632625599973835, 6.048216600087471, 9.614266699994914, 5.6819542000303045, 4.5645972999045625, 5.898321399930865, 2.965241799945943, 2.3326427000574768, 8.19838630000595, 3.748666499974206, 3.565124399960041, 3.03186220000498, 3.580949900089763, 2.3322241000132635, 2.931673499988392, 2.032431099913083, 2.5827882000012323]","[7.50050960003864, 8.148248599958606, 4.632638300070539, 6.048224200028926, 9.614273000042886, 5.6819653999991715, 4.564603499951772, 5.898328999988735, 2.965251899906434, 2.3326525000156835, 8.198397100088187, 3.7486757000442594, 3.5651323999045417, 3.031870000064373, 3.5809601000510156, 2.332234000088647, 2.931681700050831, 2.032439099973999, 2.5827989999670535]",160.56777060008608,023697,001,2022-11-08_16h01.02.077,tutorial07,2022.2.2,60.03871294935459,
0.4,1000.0,exp,1,7,19,7,163.15093770006206,164.150916100014,164.150916100014,164.150916100014,space,2.5402177999494597,167.11753152009334,167.41749680007342,167.41749680007342,167.41749680007342,30,20,"[7.500491500017233, 8.148237899993546, 4.632625599973835, 6.048216600087471, 9.614266699994914, 5.6819542000303045, 4.5645972999045625, 5.898321399930865, 2.965241799945943, 2.3326427000574768, 8.19838630000595, 3.748666499974206, 3.565124399960041, 3.03186220000498, 3.580949900089763, 2.3322241000132635, 2.931673499988392, 2.032431099913083, 2.5827882000012323, 3.098484499962069]","[7.50050960003864, 8.148248599958606, 4.632638300070539, 6.048224200028926, 9.614273000042886, 5.6819653999991715, 4.564603499951772, 5.898328999988735, 2.965251899906434, 2.3326525000156835, 8.198397100088187, 3.7486757000442594, 3.5651323999045417, 3.031870000064373, 3.5809601000510156, 2.332234000088647, 2.931681700050831, 2.032439099973999, 2.5827989999670535, 3.0984959000488743]",167.41749680007342,023697,001,2022-11-08_16h01.02.077,tutorial07,2022.2.2,60.03871294935459,
0.4,1000.0,exp,1,8,20,4,170.5174258000916,171.51741650002077,171.51741650002077,171.51741650002077,space,2.575719299959019,174.51703182003695,174.81725830002688,174.81725830002688,174.81725830002688,70,21,"[7.500491500017233, 8.148237899993546, 4.632625599973835, 6.048216600087471, 9.614266699994914, 5.6819542000303045, 4.5645972999045625, 5.898321399930865, 2.965241799945943, 2.3326427000574768, 8.19838630000595, 3.748666499974206, 3.565124399960041, 3.03186220000498, 3.580949900089763, 2.3322241000132635, 2.931673499988392, 2.032431099913083, 2.5827882000012323, 3.098484499962069, 2.1983819999732077]","[7.50050960003864, 8.148248599958606, 4.632638300070539, 6.048224200028926, 9.614273000042886, 5.6819653999991715, 4.564603499951772, 5.898328999988735, 2.965251899906434, 2.3326525000156835, 8.198397100088187, 3.7486757000442594, 3.5651323999045417, 3.031870000064373, 3.5809601000510156, 2.332234000088647, 2.931681700050831, 2.032439099973999, 2.5827989999670535, 3.0984959000488743, 2.1983917000470683]",,023697,001,2022-11-08_16h01.02.077,tutorial07,2022.2.2,60.03871294935459,
0.1,400.0,unexp,1,9,21,0,177.01725070003886,178.01705660007428,178.01705660007428,178.01705660007428,space,1.7650249999715015,179.90051242000192,180.2002516000066,180.2002516000066,180.2002516000066,80,22,"[7.500491500017233, 8.148237899993546, 4.632625599973835, 6.048216600087471, 9.614266699994914, 5.6819542000303045, 4.5645972999045625, 5.898321399930865, 2.965241799945943, 2.3326427000574768, 8.19838630000595, 3.748666499974206, 3.565124399960041, 3.03186220000498, 3.580949900089763, 2.3322241000132635, 2.931673499988392, 2.032431099913083, 2.5827882000012323, 3.098484499962069, 2.1983819999732077, 3.6324259999673814]","[7.50050960003864, 8.148248599958606, 4.632638300070539, 6.048224200028926, 9.614273000042886, 5.6819653999991715, 4.564603499951772, 5.898328999988735, 2.965251899906434, 2.3326525000156835, 8.198397100088187, 3.7486757000442594, 3.5651323999045417, 3.031870000064373, 3.5809601000510156, 2.332234000088647, 2.931681700050831, 2.032439099973999, 2.5827989999670535, 3.0984959000488743, 2.1983917000470683, 3.6324376999400556]",,023697,001,2022-11-08_16h01.02.077,tutorial07,2022.2.2,60.03871294935459,
0.7,1000.0,exp,1,10,22,5,183.8335195000982,184.83340600004885,184.83340600004885,184.83340600004885,space,2.1298130999784917,187.68343682006235,187.9834410001058,187.9834410001058,187.9834410001058,25,23,"[7.500491500017233, 8.148237899993546, 4.632625599973835, 6.048216600087471, 9.614266699994914, 5.6819542000303045, 4.5645972999045625, 5.898321399930865, 2.965241799945943, 2.3326427000574768, 8.19838630000595, 3.748666499974206, 3.565124399960041, 3.03186220000498, 3.580949900089763, 2.3322241000132635, 2.931673499988392, 2.032431099913083, 2.5827882000012323, 3.098484499962069, 2.1983819999732077, 3.6324259999673814, 2.748561199987307]","[7.50050960003864, 8.148248599958606, 4.632638300070539, 6.048224200028926, 9.614273000042886, 5.6819653999991715, 4.564603499951772, 5.898328999988735, 2.965251899906434, 2.3326525000156835, 8.198397100088187, 3.7486757000442594, 3.5651323999045417, 3.031870000064373, 3.5809601000510156, 2.332234000088647, 2.931681700050831, 2.032439099973999, 2.5827989999670535, 3.0984959000488743, 2.1983917000470683, 3.6324376999400556, 2.748571499949321]",,023697,001,2022-11-08_16h01.02.077,tutorial07,2022.2.2,60.03871294935459,
0.1,1000.0,exp,1,11,23,9,190.73330500000156,191.73325640009716,191.73325640009716,191.73325640009716,space,0.4446273000212386,192.29969751999016,192.59979910007678,192.59979910007678,192.59979910007678,30,24,"[7.500491500017233, 8.148237899993546, 4.632625599973835, 6.048216600087471, 9.614266699994914, 5.6819542000303045, 4.5645972999045625, 5.898321399930865, 2.965241799945943, 2.3326427000574768, 8.19838630000595, 3.748666499974206, 3.565124399960041, 3.03186220000498, 3.580949900089763, 2.3322241000132635, 2.931673499988392, 2.032431099913083, 2.5827882000012323, 3.098484499962069, 2.1983819999732077, 3.6324259999673814, 2.748561199987307, 2.716066399938427]","[7.50050960003864, 8.148248599958606, 4.632638300070539, 6.048224200028926, 9.614273000042886, 5.6819653999991715, 4.564603499951772, 5.898328999988735, 2.965251899906434, 2.3326525000156835, 8.198397100088187, 3.7486757000442594, 3.5651323999045417, 3.031870000064373, 3.5809601000510156, 2.332234000088647, 2.931681700050831, 2.032439099973999, 2.5827989999670535, 3.0984959000488743, 2.1983917000470683, 3.6324376999400556, 2.748571499949321, 2.7160768000176176]",192.59979910007678,023697,001,2022-11-08_16h01.02.077,tutorial07,2022.2.2,60.03871294935459,
0.7,400.0,unexp,2,0,24,2,195.31651680008508,196.3164684000658,196.3164684000658,196.3164684000658,space,0.36323759995866567,197.39940612007632,197.69954150007106,197.69954150007106,197.69954150007106,40,25,"[7.500491500017233, 8.148237899993546, 4.632625599973835, 6.048216600087471, 9.614266699994914, 5.6819542000303045, 4.5645972999045625, 5.898321399930865, 2.965241799945943, 2.3326427000574768, 8.19838630000595, 3.748666499974206, 3.565124399960041, 3.03186220000498, 3.580949900089763, 2.3322241000132635, 2.931673499988392, 2.032431099913083, 2.5827882000012323, 3.098484499962069, 2.1983819999732077, 3.6324259999673814, 2.748561199987307, 2.716066399938427, 2.932921399944462]","[7.50050960003864, 8.148248599958606, 4.632638300070539, 6.048224200028926, 9.614273000042886, 5.6819653999991715, 4.564603499951772, 5.898328999988735, 2.965251899906434, 2.3326525000156835, 8.198397100088187, 3.7486757000442594, 3.5651323999045417, 3.031870000064373, 3.5809601000510156, 2.332234000088647, 2.931681700050831, 2.032439099973999, 2.5827989999670535, 3.0984959000488743, 2.1983917000470683, 3.6324376999400556, 2.748571499949321, 2.7160768000176176, 2.9329311000183225]",,023697,001,2022-11-08_16h01.02.077,tutorial07,2022.2.2,60.03871294935459,
0.4,400.0,unexp,2,1,25,1,200.63290010008495,201.63309930008836,201.63309930008836,201.63309930008836,space,0.2423310000449419,202.29951132008574,202.5995701000793,202.5995701000793,202.5995701000793,70,26,"[7.500491500017233, 8.148237899993546, 4.632625599973835, 6.048216600087471, 9.614266699994914, 5.6819542000303045, 4.5645972999045625, 5.898321399930865, 2.965241799945943, 2.3326427000574768, 8.19838630000595, 3.748666499974206, 3.565124399960041, 3.03186220000498, 3.580949900089763, 2.3322241000132635, 2.931673499988392, 2.032431099913083, 2.5827882000012323, 3.098484499962069, 2.1983819999732077, 3.6324259999673814, 2.748561199987307, 2.716066399938427, 2.932921399944462, 2.3160394000587985]","[7.50050960003864, 8.148248599958606, 4.632638300070539, 6.048224200028926, 9.614273000042886, 5.6819653999991715, 4.564603499951772, 5.898328999988735, 2.965251899906434, 2.3326525000156835, 8.198397100088187, 3.7486757000442594, 3.5651323999045417, 3.031870000064373, 3.5809601000510156, 2.332234000088647, 2.931681700050831, 2.032439099973999, 2.5827989999670535, 3.0984959000488743, 2.1983917000470683, 3.6324376999400556, 2.748571499949321, 2.7160768000176176, 2.9329311000183225, 2.316050500026904]",202.5995701000793,023697,001,2022-11-08_16h01.02.077,tutorial07,2022.2.2,60.03871294935459,
0.1,400.0,unexp,2,2,26,0,204.91617540002335,205.91607680008747,205.91607680008747,205.91607680008747,space,0.9305815000552684,206.965995820018,207.26609320007265,207.26609320007265,207.26609320007265,80 ,27,"[7.500491500017233, 8.148237899993546, 4.632625599973835, 6.048216600087471, 9.614266699994914, 5.6819542000303045, 4.5645972999045625, 5.898321399930865, 2.965241799945943, 2.3326427000574768, 8.19838630000595, 3.748666499974206, 3.565124399960041, 3.03186220000498, 3.580949900089763, 2.3322241000132635, 2.931673499988392, 2.032431099913083, 2.5827882000012323, 3.098484499962069, 2.1983819999732077, 3.6324259999673814, 2.748561199987307, 2.716066399938427, 2.932921399944462, 2.3160394000587985, 2.0819980000378564]","[7.50050960003864, 8.148248599958606, 4.632638300070539, 6.048224200028926, 9.614273000042886, 5.6819653999991715, 4.564603499951772, 5.898328999988735, 2.965251899906434, 2.3326525000156835, 8.198397100088187, 3.7486757000442594, 3.5651323999045417, 3.031870000064373, 3.5809601000510156, 2.332234000088647, 2.931681700050831, 2.032439099973999, 2.5827989999670535, 3.0984959000488743, 2.1983917000470683, 3.6324376999400556, 2.748571499949321, 2.7160768000176176, 2.9329311000183225, 2.316050500026904, 2.0820058999815956]",207.26609320007265,023697,001,2022-11-08_16h01.02.077,tutorial07,2022.2.2,60.03871294935459,
0.1,1000.0,exp,2,3,27,3,209.34954349999316,210.34936680004466,210.34936680004466,210.34936680004466,space,0.9232970000011846,211.3990574200987,211.6994001000421,211.6994001000421,211.6994001000421,90 ,28,"[7.500491500017233, 8.148237899993546, 4.632625599973835, 6.048216600087471, 9.614266699994914, 5.6819542000303045, 4.5645972999045625, 5.898321399930865, 2.965241799945943, 2.3326427000574768, 8.19838630000595, 3.748666499974206, 3.565124399960041, 3.03186220000498, 3.580949900089763, 2.3322241000132635, 2.931673499988392, 2.032431099913083, 2.5827882000012323, 3.098484499962069, 2.1983819999732077, 3.6324259999673814, 2.748561199987307, 2.716066399938427, 2.932921399944462, 2.3160394000587985, 2.0819980000378564, 1.8488396999891847]","[7.50050960003864, 8.148248599958606, 4.632638300070539, 6.048224200028926, 9.614273000042886, 5.6819653999991715, 4.564603499951772, 5.898328999988735, 2.965251899906434, 2.3326525000156835, 8.198397100088187, 3.7486757000442594, 3.5651323999045417, 3.031870000064373, 3.5809601000510156, 2.332234000088647, 2.931681700050831, 2.032439099973999, 2.5827989999670535, 3.0984959000488743, 2.1983917000470683, 3.6324376999400556, 2.748571499949321, 2.7160768000176176, 2.9329311000183225, 2.316050500026904, 2.0820058999815956, 1.8488503000698984]",211.6994001000421,023697,001,2022-11-08_16h01.02.077,tutorial07,2022.2.2,60.03871294935459,
0.1,1000.0,exp,2,4,28,9,213.54918060009368,214.549212400103,214.549212400103,214.549212400103,space,0.28578070004004985,214.96571942000884,215.26567820005585,215.26567820005585,215.26567820005585,150,29,"[7.500491500017233, 8.148237899993546, 4.632625599973835, 6.048216600087471, 9.614266699994914, 5.6819542000303045, 4.5645972999045625, 5.898321399930865, 2.965241799945943, 2.3326427000574768, 8.19838630000595, 3.748666499974206, 3.565124399960041, 3.03186220000498, 3.580949900089763, 2.3322241000132635, 2.931673499988392, 2.032431099913083, 2.5827882000012323, 3.098484499962069, 2.1983819999732077, 3.6324259999673814, 2.748561199987307, 2.716066399938427, 2.932921399944462, 2.3160394000587985, 2.0819980000378564, 1.8488396999891847, 5.231566399917938]","[7.50050960003864, 8.148248599958606, 4.632638300070539, 6.048224200028926, 9.614273000042886, 5.6819653999991715, 4.564603499951772, 5.898328999988735, 2.965251899906434, 2.3326525000156835, 8.198397100088187, 3.7486757000442594, 3.5651323999045417, 3.031870000064373, 3.5809601000510156, 2.332234000088647, 2.931681700050831, 2.032439099973999, 2.5827989999670535, 3.0984959000488743, 2.1983917000470683, 3.6324376999400556, 2.748571499949321, 2.7160768000176176, 2.9329311000183225, 2.316050500026904, 2.0820058999815956, 1.8488503000698984, 5.231573799974285]",215.26567820005585,023697,001,2022-11-08_16h01.02.077,tutorial07,2022.2.2,60.03871294935459,
0.7,1000.0,exp,2,5,29,5,220.49881200003438,221.498640100006,221.498640100006,221.498640100006,space,0.7918792000273243,223.01542352001417,223.31547860009596,223.31547860009596,223.31547860009596,200,30,"[7.500491500017233, 8.148237899993546, 4.632625599973835, 6.048216600087471, 9.614266699994914, 5.6819542000303045, 4.5645972999045625, 5.898321399930865, 2.965241799945943, 2.3326427000574768, 8.19838630000595, 3.748666499974206, 3.565124399960041, 3.03186220000498, 3.580949900089763, 2.3322241000132635, 2.931673499988392, 2.032431099913083, 2.5827882000012323, 3.098484499962069, 2.1983819999732077, 3.6324259999673814, 2.748561199987307, 2.716066399938427, 2.932921399944462, 2.3160394000587985, 2.0819980000378564, 1.8488396999891847, 5.231566399917938, 1.8320555000100285]","[7.50050960003864, 8.148248599958606, 4.632638300070539, 6.048224200028926, 9.614273000042886, 5.6819653999991715, 4.564603499951772, 5.898328999988735, 2.965251899906434, 2.3326525000156835, 8.198397100088187, 3.7486757000442594, 3.5651323999045417, 3.031870000064373, 3.5809601000510156, 2.332234000088647, 2.931681700050831, 2.032439099973999, 2.5827989999670535, 3.0984959000488743, 2.1983917000470683, 3.6324376999400556, 2.748571499949321, 2.7160768000176176, 2.9329311000183225, 2.316050500026904, 2.0820058999815956, 1.8488503000698984, 5.231573799974285, 1.8320637999568135]",223.31547860009596,023697,001,2022-11-08_16h01.02.077,tutorial07,2022.2.2,60.03871294935459,
0.4,1000.0,exp,2,6,30,10,225.1486787000904,226.14862550003454,226.14862550003454,226.14862550003454,space,1.2662779999664053,227.83189661999933,228.1319931000471,228.1319931000471,228.1319931000471,45,31,"[7.500491500017233, 8.148237899993546, 4.632625599973835, 6.048216600087471, 9.614266699994914, 5.6819542000303045, 4.5645972999045625, 5.898321399930865, 2.965241799945943, 2.3326427000574768, 8.19838630000595, 3.748666499974206, 3.565124399960041, 3.03186220000498, 3.580949900089763, 2.3322241000132635, 2.931673499988392, 2.032431099913083, 2.5827882000012323, 3.098484499962069, 2.1983819999732077, 3.6324259999673814, 2.748561199987307, 2.716066399938427, 2.932921399944462, 2.3160394000587985, 2.0819980000378564, 1.8488396999891847, 5.231566399917938, 1.8320555000100285, 2.015644900035113]","[7.50050960003864, 8.148248599958606, 4.632638300070539, 6.048224200028926, 9.614273000042886, 5.6819653999991715, 4.564603499951772, 5.898328999988735, 2.965251899906434, 2.3326525000156835, 8.198397100088187, 3.7486757000442594, 3.5651323999045417, 3.031870000064373, 3.5809601000510156, 2.332234000088647, 2.931681700050831, 2.032439099973999, 2.5827989999670535, 3.0984959000488743, 2.1983917000470683, 3.6324376999400556, 2.748571499949321, 2.7160768000176176, 2.9329311000183225, 2.316050500026904, 2.0820058999815956, 1.8488503000698984, 5.231573799974285, 1.8320637999568135, 2.0156586000230163]",,023697,001,2022-11-08_16h01.02.077,tutorial07,2022.2.2,60.03871294935459,
0.4,1000.0,exp,2,7,31,4,230.1485208000522,231.14842209999915,231.14842209999915,231.14842209999915,space,0.5249341999879107,232.09831452009968,232.39842340000905,232.39842340000905,232.39842340000905,55 ,32,"[7.500491500017233, 8.148237899993546, 4.632625599973835, 6.048216600087471, 9.614266699994914, 5.6819542000303045, 4.5645972999045625, 5.898321399930865, 2.965241799945943, 2.3326427000574768, 8.19838630000595, 3.748666499974206, 3.565124399960041, 3.03186220000498, 3.580949900089763, 2.3322241000132635, 2.931673499988392, 2.032431099913083, 2.5827882000012323, 3.098484499962069, 2.1983819999732077, 3.6324259999673814, 2.748561199987307, 2.716066399938427, 2.932921399944462, 2.3160394000587985, 2.0819980000378564, 1.8488396999891847, 5.231566399917938, 1.8320555000100285, 2.015644900035113, 1.448403700022027]","[7.50050960003864, 8.148248599958606, 4.632638300070539, 6.048224200028926, 9.614273000042886, 5.6819653999991715, 4.564603499951772, 5.898328999988735, 2.965251899906434, 2.3326525000156835, 8.198397100088187, 3.7486757000442594, 3.5651323999045417, 3.031870000064373, 3.5809601000510156, 2.332234000088647, 2.931681700050831, 2.032439099973999, 2.5827989999670535, 3.0984959000488743, 2.1983917000470683, 3.6324376999400556, 2.748571499949321, 2.7160768000176176, 2.9329311000183225, 2.316050500026904, 2.0820058999815956, 1.8488503000698984, 5.231573799974285, 1.8320637999568135, 2.0156586000230163, 1.4484117000829428]",,023697,001,2022-11-08_16h01.02.077,tutorial07,2022.2.2,60.03871294935459,
0.7,1000.0,exp,2,8,32,11,233.84837610006798,234.8483621000778,234.8483621000778,234.8483621000778,space,0.3222988999914378,235.8980132200639,236.1982656000182,236.1982656000182,236.1982656000182,65 ,33,"[7.500491500017233, 8.148237899993546, 4.632625599973835, 6.048216600087471, 9.614266699994914, 5.6819542000303045, 4.5645972999045625, 5.898321399930865, 2.965241799945943, 2.3326427000574768, 8.19838630000595, 3.748666499974206, 3.565124399960041, 3.03186220000498, 3.580949900089763, 2.3322241000132635, 2.931673499988392, 2.032431099913083, 2.5827882000012323, 3.098484499962069, 2.1983819999732077, 3.6324259999673814, 2.748561199987307, 2.716066399938427, 2.932921399944462, 2.3160394000587985, 2.0819980000378564, 1.8488396999891847, 5.231566399917938, 1.8320555000100285, 2.015644900035113, 1.448403700022027, 1.7659660000354052]","[7.50050960003864, 8.148248599958606, 4.632638300070539, 6.048224200028926, 9.614273000042886, 5.6819653999991715, 4.564603499951772, 5.898328999988735, 2.965251899906434, 2.3326525000156835, 8.198397100088187, 3.7486757000442594, 3.5651323999045417, 3.031870000064373, 3.5809601000510156, 2.332234000088647, 2.931681700050831, 2.032439099973999, 2.5827989999670535, 3.0984959000488743, 2.1983917000470683, 3.6324376999400556, 2.748571499949321, 2.7160768000176176, 2.9329311000183225, 2.316050500026904, 2.0820058999815956, 1.8488503000698984, 5.231573799974285, 1.8320637999568135, 2.0156586000230163, 1.4484117000829428, 1.765975399990566]",,023697,001,2022-11-08_16h01.02.077,tutorial07,2022.2.2,60.03871294935459,
0.1,1000.0,exp,2,9,33,6,237.9648546000244,238.96485320001375,238.96485320001375,238.96485320001375,space,1.9767618000041693,241.06466162008002,241.36474700004328,241.36474700004328,241.36474700004328,77,34,"[7.500491500017233, 8.148237899993546, 4.632625599973835, 6.048216600087471, 9.614266699994914, 5.6819542000303045, 4.5645972999045625, 5.898321399930865, 2.965241799945943, 2.3326427000574768, 8.19838630000595, 3.748666499974206, 3.565124399960041, 3.03186220000498, 3.580949900089763, 2.3322241000132635, 2.931673499988392, 2.032431099913083, 2.5827882000012323, 3.098484499962069, 2.1983819999732077, 3.6324259999673814, 2.748561199987307, 2.716066399938427, 2.932921399944462, 2.3160394000587985, 2.0819980000378564, 1.8488396999891847, 5.231566399917938, 1.8320555000100285, 2.015644900035113, 1.448403700022027, 1.7659660000354052, 1.2314894000301138]","[7.50050960003864, 8.148248599958606, 4.632638300070539, 6.048224200028926, 9.614273000042886, 5.6819653999991715, 4.564603499951772, 5.898328999988735, 2.965251899906434, 2.3326525000156835, 8.198397100088187, 3.7486757000442594, 3.5651323999045417, 3.031870000064373, 3.5809601000510156, 2.332234000088647, 2.931681700050831, 2.032439099973999, 2.5827989999670535, 3.0984959000488743, 2.1983917000470683, 3.6324376999400556, 2.748571499949321, 2.7160768000176176, 2.9329311000183225, 2.316050500026904, 2.0820058999815956, 1.8488503000698984, 5.231573799974285, 1.8320637999568135, 2.0156586000230163, 1.4484117000829428, 1.765975399990566, 1.2314973000902683]",,023697,001,2022-11-08_16h01.02.077,tutorial07,2022.2.2,60.03871294935459,
0.4,1000.0,exp,2,10,34,7,242.59800030000042,243.59801469999366,243.59801469999366,243.59801469999366,space,0.8512947000563145,244.88116092003185,245.18118770001456,245.18118770001456,245.18118770001456,88 ,35,"[7.500491500017233, 8.148237899993546, 4.632625599973835, 6.048216600087471, 9.614266699994914, 5.6819542000303045, 4.5645972999045625, 5.898321399930865, 2.965241799945943, 2.3326427000574768, 8.19838630000595, 3.748666499974206, 3.565124399960041, 3.03186220000498, 3.580949900089763, 2.3322241000132635, 2.931673499988392, 2.032431099913083, 2.5827882000012323, 3.098484499962069, 2.1983819999732077, 3.6324259999673814, 2.748561199987307, 2.716066399938427, 2.932921399944462, 2.3160394000587985, 2.0819980000378564, 1.8488396999891847, 5.231566399917938, 1.8320555000100285, 2.015644900035113, 1.448403700022027, 1.7659660000354052, 1.2314894000301138, 1.515285599976778]","[7.50050960003864, 8.148248599958606, 4.632638300070539, 6.048224200028926, 9.614273000042886, 5.6819653999991715, 4.564603499951772, 5.898328999988735, 2.965251899906434, 2.3326525000156835, 8.198397100088187, 3.7486757000442594, 3.5651323999045417, 3.031870000064373, 3.5809601000510156, 2.332234000088647, 2.931681700050831, 2.032439099973999, 2.5827989999670535, 3.0984959000488743, 2.1983917000470683, 3.6324376999400556, 2.748571499949321, 2.7160768000176176, 2.9329311000183225, 2.316050500026904, 2.0820058999815956, 1.8488503000698984, 5.231573799974285, 1.8320637999568135, 2.0156586000230163, 1.4484117000829428, 1.765975399990566, 1.2314973000902683, 1.5152951000491157]",245.18118770001456,023697,001,2022-11-08_16h01.02.077,tutorial07,2022.2.2,60.03871294935459,
0.7,1000.0,exp,2,11,35,8,246.69790380005725,247.69778160005808,247.69778160005808,247.69778160005808,space,0.7851540999254212,249.21429142007838,249.5145259000128,249.5145259000128,249.5145259000128,99 ,36,"[7.500491500017233, 8.148237899993546, 4.632625599973835, 6.048216600087471, 9.614266699994914, 5.6819542000303045, 4.5645972999045625, 5.898321399930865, 2.965241799945943, 2.3326427000574768, 8.19838630000595, 3.748666499974206, 3.565124399960041, 3.03186220000498, 3.580949900089763, 2.3322241000132635, 2.931673499988392, 2.032431099913083, 2.5827882000012323, 3.098484499962069, 2.1983819999732077, 3.6324259999673814, 2.748561199987307, 2.716066399938427, 2.932921399944462, 2.3160394000587985, 2.0819980000378564, 1.8488396999891847, 5.231566399917938, 1.8320555000100285, 2.015644900035113, 1.448403700022027, 1.7659660000354052, 1.2314894000301138, 1.515285599976778, 1.8822721000760794]","[7.50050960003864, 8.148248599958606, 4.632638300070539, 6.048224200028926, 9.614273000042886, 5.6819653999991715, 4.564603499951772, 5.898328999988735, 2.965251899906434, 2.3326525000156835, 8.198397100088187, 3.7486757000442594, 3.5651323999045417, 3.031870000064373, 3.5809601000510156, 2.332234000088647, 2.931681700050831, 2.032439099973999, 2.5827989999670535, 3.0984959000488743, 2.1983917000470683, 3.6324376999400556, 2.748571499949321, 2.7160768000176176, 2.9329311000183225, 2.316050500026904, 2.0820058999815956, 1.8488503000698984, 5.231573799974285, 1.8320637999568135, 2.0156586000230163, 1.4484117000829428, 1.765975399990566, 1.2314973000902683, 1.5152951000491157, 1.8822809000266716]",,023697,001,2022-11-08_16h01.02.077,tutorial07,2022.2.2,60.03871294935459,
0.4,1000.0,exp,3,0,36,7,251.39777150005102,252.3976571999956,252.3976571999956,252.3976571999956,space,0.9848620999837294,253.81429152005586,254.11436970008072,254.11436970008072,254.11436970008072,90 ,37,"[7.500491500017233, 8.148237899993546, 4.632625599973835, 6.048216600087471, 9.614266699994914, 5.6819542000303045, 4.5645972999045625, 5.898321399930865, 2.965241799945943, 2.3326427000574768, 8.19838630000595, 3.748666499974206, 3.565124399960041, 3.03186220000498, 3.580949900089763, 2.3322241000132635, 2.931673499988392, 2.032431099913083, 2.5827882000012323, 3.098484499962069, 2.1983819999732077, 3.6324259999673814, 2.748561199987307, 2.716066399938427, 2.932921399944462, 2.3160394000587985, 2.0819980000378564, 1.8488396999891847, 5.231566399917938, 1.8320555000100285, 2.015644900035113, 1.448403700022027, 1.7659660000354052, 1.2314894000301138, 1.515285599976778, 1.8822721000760794, 2.564797700033523]","[7.50050960003864, 8.148248599958606, 4.632638300070539, 6.048224200028926, 9.614273000042886, 5.6819653999991715, 4.564603499951772, 5.898328999988735, 2.965251899906434, 2.3326525000156835, 8.198397100088187, 3.7486757000442594, 3.5651323999045417, 3.031870000064373, 3.5809601000510156, 2.332234000088647, 2.931681700050831, 2.032439099973999, 2.5827989999670535, 3.0984959000488743, 2.1983917000470683, 3.6324376999400556, 2.748571499949321, 2.7160768000176176, 2.9329311000183225, 2.316050500026904, 2.0820058999815956, 1.8488503000698984, 5.231573799974285, 1.8320637999568135, 2.0156586000230163, 1.4484117000829428, 1.765975399990566, 1.2314973000902683, 1.5152951000491157, 1.8822809000266716, 2.5648185999598354]",,023697,001,2022-11-08_16h01.02.077,tutorial07,2022.2.2,60.03871294935459,
0.1,400.0,unexp,3,1,37,0,256.68086740002036,257.68080230010673,257.68080230010673,257.68080230010673,space,0.88766900007613,258.6973792200559,258.99744260008447,258.99744260008447,258.99744260008447,800,38,"[7.500491500017233, 8.148237899993546, 4.632625599973835, 6.048216600087471, 9.614266699994914, 5.6819542000303045, 4.5645972999045625, 5.898321399930865, 2.965241799945943, 2.3326427000574768, 8.19838630000595, 3.748666499974206, 3.565124399960041, 3.03186220000498, 3.580949900089763, 2.3322241000132635, 2.931673499988392, 2.032431099913083, 2.5827882000012323, 3.098484499962069, 2.1983819999732077, 3.6324259999673814, 2.748561199987307, 2.716066399938427, 2.932921399944462, 2.3160394000587985, 2.0819980000378564, 1.8488396999891847, 5.231566399917938, 1.8320555000100285, 2.015644900035113, 1.448403700022027, 1.7659660000354052, 1.2314894000301138, 1.515285599976778, 1.8822721000760794, 2.564797700033523, 2.7825435999548063]","[7.50050960003864, 8.148248599958606, 4.632638300070539, 6.048224200028926, 9.614273000042886, 5.6819653999991715, 4.564603499951772, 5.898328999988735, 2.965251899906434, 2.3326525000156835, 8.198397100088187, 3.7486757000442594, 3.5651323999045417, 3.031870000064373, 3.5809601000510156, 2.332234000088647, 2.931681700050831, 2.032439099973999, 2.5827989999670535, 3.0984959000488743, 2.1983917000470683, 3.6324376999400556, 2.748571499949321, 2.7160768000176176, 2.9329311000183225, 2.316050500026904, 2.0820058999815956, 1.8488503000698984, 5.231573799974285, 1.8320637999568135, 2.0156586000230163, 1.4484117000829428, 1.765975399990566, 1.2314973000902683, 1.5152951000491157, 1.8822809000266716, 2.5648185999598354, 2.7825550000416115]",,023697,001,2022-11-08_16h01.02.077,tutorial07,2022.2.2,60.03871294935459,
0.4,400.0,unexp,3,2,38,1,261.78064990008716,262.78065660002176,262.78065660002176,262.78065660002176,space,1.6444368000375107,264.8471589200315,265.14720430003945,265.14720430003945,265.14720430003945,99 ,39,"[7.500491500017233, 8.148237899993546, 4.632625599973835, 6.048216600087471, 9.614266699994914, 5.6819542000303045, 4.5645972999045625, 5.898321399930865, 2.965241799945943, 2.3326427000574768, 8.19838630000595, 3.748666499974206, 3.565124399960041, 3.03186220000498, 3.580949900089763, 2.3322241000132635, 2.931673499988392, 2.032431099913083, 2.5827882000012323, 3.098484499962069, 2.1983819999732077, 3.6324259999673814, 2.748561199987307, 2.716066399938427, 2.932921399944462, 2.3160394000587985, 2.0819980000378564, 1.8488396999891847, 5.231566399917938, 1.8320555000100285, 2.015644900035113, 1.448403700022027, 1.7659660000354052, 1.2314894000301138, 1.515285599976778, 1.8822721000760794, 2.564797700033523, 2.7825435999548063, 1.6818620000267401]","[7.50050960003864, 8.148248599958606, 4.632638300070539, 6.048224200028926, 9.614273000042886, 5.6819653999991715, 4.564603499951772, 5.898328999988735, 2.965251899906434, 2.3326525000156835, 8.198397100088187, 3.7486757000442594, 3.5651323999045417, 3.031870000064373, 3.5809601000510156, 2.332234000088647, 2.931681700050831, 2.032439099973999, 2.5827989999670535, 3.0984959000488743, 2.1983917000470683, 3.6324376999400556, 2.748571499949321, 2.7160768000176176, 2.9329311000183225, 2.316050500026904, 2.0820058999815956, 1.8488503000698984, 5.231573799974285, 1.8320637999568135, 2.0156586000230163, 1.4484117000829428, 1.765975399990566, 1.2314973000902683, 1.5152951000491157, 1.8822809000266716, 2.5648185999598354, 2.7825550000416115, 1.681870499975048]",265.14720430003945,023697,001,2022-11-08_16h01.02.077,tutorial07,2022.2.2,60.03871294935459,
0.4,1000.0,exp,3,3,39,4,266.8303922000341,267.83036470005754,267.83036470005754,267.83036470005754,space,0.9103504000231624,269.1636651200359,269.46498720010277,269.46498720010277,269.46498720010277,88,40,"[7.500491500017233, 8.148237899993546, 4.632625599973835, 6.048216600087471, 9.614266699994914, 5.6819542000303045, 4.5645972999045625, 5.898321399930865, 2.965241799945943, 2.3326427000574768, 8.19838630000595, 3.748666499974206, 3.565124399960041, 3.03186220000498, 3.580949900089763, 2.3322241000132635, 2.931673499988392, 2.032431099913083, 2.5827882000012323, 3.098484499962069, 2.1983819999732077, 3.6324259999673814, 2.748561199987307, 2.716066399938427, 2.932921399944462, 2.3160394000587985, 2.0819980000378564, 1.8488396999891847, 5.231566399917938, 1.8320555000100285, 2.015644900035113, 1.448403700022027, 1.7659660000354052, 1.2314894000301138, 1.515285599976778, 1.8822721000760794, 2.564797700033523, 2.7825435999548063, 1.6818620000267401, 1.3311472999630496]","[7.50050960003864, 8.148248599958606, 4.632638300070539, 6.048224200028926, 9.614273000042886, 5.6819653999991715, 4.564603499951772, 5.898328999988735, 2.965251899906434, 2.3326525000156835, 8.198397100088187, 3.7486757000442594, 3.5651323999045417, 3.031870000064373, 3.5809601000510156, 2.332234000088647, 2.931681700050831, 2.032439099973999, 2.5827989999670535, 3.0984959000488743, 2.1983917000470683, 3.6324376999400556, 2.748571499949321, 2.7160768000176176, 2.9329311000183225, 2.316050500026904, 2.0820058999815956, 1.8488503000698984, 5.231573799974285, 1.8320637999568135, 2.0156586000230163, 1.4484117000829428, 1.765975399990566, 1.2314973000902683, 1.5152951000491157, 1.8822809000266716, 2.5648185999598354, 2.7825550000416115, 1.681870499975048, 1.331153200007975]",269.46498720010277,023697,001,2022-11-08_16h01.02.077,tutorial07,2022.2.2,60.03871294935459,
0.1,1000.0,exp,3,4,40,6,270.79697010002565,271.7803225000389,271.7803225000389,271.7968600000022,space,3.5521313999779522,275.46341342002853,275.76350670005195,275.76350670005195,275.76350670005195,12,41,"[7.500491500017233, 8.148237899993546, 4.632625599973835, 6.048216600087471, 9.614266699994914, 5.6819542000303045, 4.5645972999045625, 5.898321399930865, 2.965241799945943, 2.3326427000574768, 8.19838630000595, 3.748666499974206, 3.565124399960041, 3.03186220000498, 3.580949900089763, 2.3322241000132635, 2.931673499988392, 2.032431099913083, 2.5827882000012323, 3.098484499962069, 2.1983819999732077, 3.6324259999673814, 2.748561199987307, 2.716066399938427, 2.932921399944462, 2.3160394000587985, 2.0819980000378564, 1.8488396999891847, 5.231566399917938, 1.8320555000100285, 2.015644900035113, 1.448403700022027, 1.7659660000354052, 1.2314894000301138, 1.515285599976778, 1.8822721000760794, 2.564797700033523, 2.7825435999548063, 1.6818620000267401, 1.3311472999630496, 1.482168099959381]","[7.50050960003864, 8.148248599958606, 4.632638300070539, 6.048224200028926, 9.614273000042886, 5.6819653999991715, 4.564603499951772, 5.898328999988735, 2.965251899906434, 2.3326525000156835, 8.198397100088187, 3.7486757000442594, 3.5651323999045417, 3.031870000064373, 3.5809601000510156, 2.332234000088647, 2.931681700050831, 2.032439099973999, 2.5827989999670535, 3.0984959000488743, 2.1983917000470683, 3.6324376999400556, 2.748571499949321, 2.7160768000176176, 2.9329311000183225, 2.316050500026904, 2.0820058999815956, 1.8488503000698984, 5.231573799974285, 1.8320637999568135, 2.0156586000230163, 1.4484117000829428, 1.765975399990566, 1.2314973000902683, 1.5152951000491157, 1.8822809000266716, 2.5648185999598354, 2.7825550000416115, 1.681870499975048, 1.331153200007975, 1.482177099911496]",,023697,001,2022-11-08_16h01.02.077,tutorial07,2022.2.2,60.03871294935459,
0.1,1000.0,exp,3,5,41,9,277.2465896999929,278.2466822999995,278.2466822999995,278.2466822999995,space,0.5798546000150964,278.94659932005453,279.24777980009094,279.24777980009094,279.24777980009094,21,42,"[7.500491500017233, 8.148237899993546, 4.632625599973835, 6.048216600087471, 9.614266699994914, 5.6819542000303045, 4.5645972999045625, 5.898321399930865, 2.965241799945943, 2.3326427000574768, 8.19838630000595, 3.748666499974206, 3.565124399960041, 3.03186220000498, 3.580949900089763, 2.3322241000132635, 2.931673499988392, 2.032431099913083, 2.5827882000012323, 3.098484499962069, 2.1983819999732077, 3.6324259999673814, 2.748561199987307, 2.716066399938427, 2.932921399944462, 2.3160394000587985, 2.0819980000378564, 1.8488396999891847, 5.231566399917938, 1.8320555000100285, 2.015644900035113, 1.448403700022027, 1.7659660000354052, 1.2314894000301138, 1.515285599976778, 1.8822721000760794, 2.564797700033523, 2.7825435999548063, 1.6818620000267401, 1.3311472999630496, 1.482168099959381, 2.4149961000075564]","[7.50050960003864, 8.148248599958606, 4.632638300070539, 6.048224200028926, 9.614273000042886, 5.6819653999991715, 4.564603499951772, 5.898328999988735, 2.965251899906434, 2.3326525000156835, 8.198397100088187, 3.7486757000442594, 3.5651323999045417, 3.031870000064373, 3.5809601000510156, 2.332234000088647, 2.931681700050831, 2.032439099973999, 2.5827989999670535, 3.0984959000488743, 2.1983917000470683, 3.6324376999400556, 2.748571499949321, 2.7160768000176176, 2.9329311000183225, 2.316050500026904, 2.0820058999815956, 1.8488503000698984, 5.231573799974285, 1.8320637999568135, 2.0156586000230163, 1.4484117000829428, 1.765975399990566, 1.2314973000902683, 1.5152951000491157, 1.8822809000266716, 2.5648185999598354, 2.7825550000416115, 1.681870499975048, 1.331153200007975, 1.482177099911496, 2.415010099997744]",,023697,001,2022-11-08_16h01.02.077,tutorial07,2022.2.2,60.03871294935459,
0.7,1000.0,exp,3,6,42,11,281.66324850008823,282.66321610007435,282.66321610007435,282.66321610007435,space,1.8364840999711305,285.22974472005154,285.52992940007243,285.52992940007243,285.52992940007243,4,43,"[7.500491500017233, 8.148237899993546, 4.632625599973835, 6.048216600087471, 9.614266699994914, 5.6819542000303045, 4.5645972999045625, 5.898321399930865, 2.965241799945943, 2.3326427000574768, 8.19838630000595, 3.748666499974206, 3.565124399960041, 3.03186220000498, 3.580949900089763, 2.3322241000132635, 2.931673499988392, 2.032431099913083, 2.5827882000012323, 3.098484499962069, 2.1983819999732077, 3.6324259999673814, 2.748561199987307, 2.716066399938427, 2.932921399944462, 2.3160394000587985, 2.0819980000378564, 1.8488396999891847, 5.231566399917938, 1.8320555000100285, 2.015644900035113, 1.448403700022027, 1.7659660000354052, 1.2314894000301138, 1.515285599976778, 1.8822721000760794, 2.564797700033523, 2.7825435999548063, 1.6818620000267401, 1.3311472999630496, 1.482168099959381, 2.4149961000075564, 2.3654080000706017]","[7.50050960003864, 8.148248599958606, 4.632638300070539, 6.048224200028926, 9.614273000042886, 5.6819653999991715, 4.564603499951772, 5.898328999988735, 2.965251899906434, 2.3326525000156835, 8.198397100088187, 3.7486757000442594, 3.5651323999045417, 3.031870000064373, 3.5809601000510156, 2.332234000088647, 2.931681700050831, 2.032439099973999, 2.5827989999670535, 3.0984959000488743, 2.1983917000470683, 3.6324376999400556, 2.748571499949321, 2.7160768000176176, 2.9329311000183225, 2.316050500026904, 2.0820058999815956, 1.8488503000698984, 5.231573799974285, 1.8320637999568135, 2.0156586000230163, 1.4484117000829428, 1.765975399990566, 1.2314973000902683, 1.5152951000491157, 1.8822809000266716, 2.5648185999598354, 2.7825550000416115, 1.681870499975048, 1.331153200007975, 1.482177099911496, 2.415010099997744, 2.365417300025001]",,023697,001,2022-11-08_16h01.02.077,tutorial07,2022.2.2,60.03871294935459,
0.1,1000.0,exp,3,7,43,3,287.8963913000189,288.8962862000335,288.8962862000335,288.8962862000335,space,0.7955637000268325,289.81280462002616,290.113374400069,290.113374400069,290.113374400069,35,44,"[7.500491500017233, 8.148237899993546, 4.632625599973835, 6.048216600087471, 9.614266699994914, 5.6819542000303045, 4.5645972999045625, 5.898321399930865, 2.965241799945943, 2.3326427000574768, 8.19838630000595, 3.748666499974206, 3.565124399960041, 3.03186220000498, 3.580949900089763, 2.3322241000132635, 2.931673499988392, 2.032431099913083, 2.5827882000012323, 3.098484499962069, 2.1983819999732077, 3.6324259999673814, 2.748561199987307, 2.716066399938427, 2.932921399944462, 2.3160394000587985, 2.0819980000378564, 1.8488396999891847, 5.231566399917938, 1.8320555000100285, 2.015644900035113, 1.448403700022027, 1.7659660000354052, 1.2314894000301138, 1.515285599976778, 1.8822721000760794, 2.564797700033523, 2.7825435999548063, 1.6818620000267401, 1.3311472999630496, 1.482168099959381, 2.4149961000075564, 2.3654080000706017, 1.6826235998887569]","[7.50050960003864, 8.148248599958606, 4.632638300070539, 6.048224200028926, 9.614273000042886, 5.6819653999991715, 4.564603499951772, 5.898328999988735, 2.965251899906434, 2.3326525000156835, 8.198397100088187, 3.7486757000442594, 3.5651323999045417, 3.031870000064373, 3.5809601000510156, 2.332234000088647, 2.931681700050831, 2.032439099973999, 2.5827989999670535, 3.0984959000488743, 2.1983917000470683, 3.6324376999400556, 2.748571499949321, 2.7160768000176176, 2.9329311000183225, 2.316050500026904, 2.0820058999815956, 1.8488503000698984, 5.231573799974285, 1.8320637999568135, 2.0156586000230163, 1.4484117000829428, 1.765975399990566, 1.2314973000902683, 1.5152951000491157, 1.8822809000266716, 2.5648185999598354, 2.7825550000416115, 1.681870499975048, 1.331153200007975, 1.482177099911496, 2.415010099997744, 2.365417300025001, 1.682641499908641]",290.113374400069,023697,001,2022-11-08_16h01.02.077,tutorial07,2022.2.2,60.03871294935459,
0.7,1000.0,exp,3,8,44,8,291.79615770000964,292.7961830000859,292.7961830000859,292.7961830000859,space,2.1785009999293834,295.69595192001435,295.9960938000586,295.9960938000586,295.9960938000586,33,45,"[7.500491500017233, 8.148237899993546, 4.632625599973835, 6.048216600087471, 9.614266699994914, 5.6819542000303045, 4.5645972999045625, 5.898321399930865, 2.965241799945943, 2.3326427000574768, 8.19838630000595, 3.748666499974206, 3.565124399960041, 3.03186220000498, 3.580949900089763, 2.3322241000132635, 2.931673499988392, 2.032431099913083, 2.5827882000012323, 3.098484499962069, 2.1983819999732077, 3.6324259999673814, 2.748561199987307, 2.716066399938427, 2.932921399944462, 2.3160394000587985, 2.0819980000378564, 1.8488396999891847, 5.231566399917938, 1.8320555000100285, 2.015644900035113, 1.448403700022027, 1.7659660000354052, 1.2314894000301138, 1.515285599976778, 1.8822721000760794, 2.564797700033523, 2.7825435999548063, 1.6818620000267401, 1.3311472999630496, 1.482168099959381, 2.4149961000075564, 2.3654080000706017, 1.6826235998887569, 1.515520100016147]","[7.50050960003864, 8.148248599958606, 4.632638300070539, 6.048224200028926, 9.614273000042886, 5.6819653999991715, 4.564603499951772, 5.898328999988735, 2.965251899906434, 2.3326525000156835, 8.198397100088187, 3.7486757000442594, 3.5651323999045417, 3.031870000064373, 3.5809601000510156, 2.332234000088647, 2.931681700050831, 2.032439099973999, 2.5827989999670535, 3.0984959000488743, 2.1983917000470683, 3.6324376999400556, 2.748571499949321, 2.7160768000176176, 2.9329311000183225, 2.316050500026904, 2.0820058999815956, 1.8488503000698984, 5.231573799974285, 1.8320637999568135, 2.0156586000230163, 1.4484117000829428, 1.765975399990566, 1.2314973000902683, 1.5152951000491157, 1.8822809000266716, 2.5648185999598354, 2.7825550000416115, 1.681870499975048, 1.331153200007975, 1.482177099911496, 2.415010099997744, 2.365417300025001, 1.682641499908641, 1.5155303999781609]",295.9960938000586,023697,001,2022-11-08_16h01.02.077,tutorial07,2022.2.2,60.03871294935459,
0.7,400.0,unexp,3,9,45,2,297.512663600035,298.512545100064,298.512545100064,298.512545100064,space,0.4071795999770984,299.6457208200707,299.94592480000574,299.94592480000574,299.94592480000574,"90
",46,"[7.500491500017233, 8.148237899993546, 4.632625599973835, 6.048216600087471, 9.614266699994914, 5.6819542000303045, 4.5645972999045625, 5.898321399930865, 2.965241799945943, 2.3326427000574768, 8.19838630000595, 3.748666499974206, 3.565124399960041, 3.03186220000498, 3.580949900089763, 2.3322241000132635, 2.931673499988392, 2.032431099913083, 2.5827882000012323, 3.098484499962069, 2.1983819999732077, 3.6324259999673814, 2.748561199987307, 2.716066399938427, 2.932921399944462, 2.3160394000587985, 2.0819980000378564, 1.8488396999891847, 5.231566399917938, 1.8320555000100285, 2.015644900035113, 1.448403700022027, 1.7659660000354052, 1.2314894000301138, 1.515285599976778, 1.8822721000760794, 2.564797700033523, 2.7825435999548063, 1.6818620000267401, 1.3311472999630496, 1.482168099959381, 2.4149961000075564, 2.3654080000706017, 1.6826235998887569, 1.515520100016147, 2.5491708999034017]","[7.50050960003864, 8.148248599958606, 4.632638300070539, 6.048224200028926, 9.614273000042886, 5.6819653999991715, 4.564603499951772, 5.898328999988735, 2.965251899906434, 2.3326525000156835, 8.198397100088187, 3.7486757000442594, 3.5651323999045417, 3.031870000064373, 3.5809601000510156, 2.332234000088647, 2.931681700050831, 2.032439099973999, 2.5827989999670535, 3.0984959000488743, 2.1983917000470683, 3.6324376999400556, 2.748571499949321, 2.7160768000176176, 2.9329311000183225, 2.316050500026904, 2.0820058999815956, 1.8488503000698984, 5.231573799974285, 1.8320637999568135, 2.0156586000230163, 1.4484117000829428, 1.765975399990566, 1.2314973000902683, 1.5152951000491157, 1.8822809000266716, 2.5648185999598354, 2.7825550000416115, 1.681870499975048, 1.331153200007975, 1.482177099911496, 2.415010099997744, 2.365417300025001, 1.682641499908641, 1.5155303999781609, 2.549177599954419]",,023697,001,2022-11-08_16h01.02.077,tutorial07,2022.2.2,60.03871294935459,
0.4,1000.0,exp,3,10,46,10,302.4957652000012,303.4957753000781,303.4957753000781,303.4957753000781,space,0.5346463999012485,304.4623584200279,304.7623790000798,304.7623790000798,304.7623790000798,56,47,"[7.500491500017233, 8.148237899993546, 4.632625599973835, 6.048216600087471, 9.614266699994914, 5.6819542000303045, 4.5645972999045625, 5.898321399930865, 2.965241799945943, 2.3326427000574768, 8.19838630000595, 3.748666499974206, 3.565124399960041, 3.03186220000498, 3.580949900089763, 2.3322241000132635, 2.931673499988392, 2.032431099913083, 2.5827882000012323, 3.098484499962069, 2.1983819999732077, 3.6324259999673814, 2.748561199987307, 2.716066399938427, 2.932921399944462, 2.3160394000587985, 2.0819980000378564, 1.8488396999891847, 5.231566399917938, 1.8320555000100285, 2.015644900035113, 1.448403700022027, 1.7659660000354052, 1.2314894000301138, 1.515285599976778, 1.8822721000760794, 2.564797700033523, 2.7825435999548063, 1.6818620000267401, 1.3311472999630496, 1.482168099959381, 2.4149961000075564, 2.3654080000706017, 1.6826235998887569, 1.515520100016147, 2.5491708999034017, 1.0653029000386596]","[7.50050960003864, 8.148248599958606, 4.632638300070539, 6.048224200028926, 9.614273000042886, 5.6819653999991715, 4.564603499951772, 5.898328999988735, 2.965251899906434, 2.3326525000156835, 8.198397100088187, 3.7486757000442594, 3.5651323999045417, 3.031870000064373, 3.5809601000510156, 2.332234000088647, 2.931681700050831, 2.032439099973999, 2.5827989999670535, 3.0984959000488743, 2.1983917000470683, 3.6324376999400556, 2.748571499949321, 2.7160768000176176, 2.9329311000183225, 2.316050500026904, 2.0820058999815956, 1.8488503000698984, 5.231573799974285, 1.8320637999568135, 2.0156586000230163, 1.4484117000829428, 1.765975399990566, 1.2314973000902683, 1.5152951000491157, 1.8822809000266716, 2.5648185999598354, 2.7825550000416115, 1.681870499975048, 1.331153200007975, 1.482177099911496, 2.415010099997744, 2.365417300025001, 1.682641499908641, 1.5155303999781609, 2.549177599954419, 1.065312199993059]",,023697,001,2022-11-08_16h01.02.077,tutorial07,2022.2.2,60.03871294935459,
0.7,1000.0,exp,3,11,47,5,305.82907000009436,306.828946200083,306.828946200083,306.828946200083,space,0.4447102000704035,307.99556712004124,308.2979589001043,308.2979589001043,308.2979589001043,5,48,"[7.500491500017233, 8.148237899993546, 4.632625599973835, 6.048216600087471, 9.614266699994914, 5.6819542000303045, 4.5645972999045625, 5.898321399930865, 2.965241799945943, 2.3326427000574768, 8.19838630000595, 3.748666499974206, 3.565124399960041, 3.03186220000498, 3.580949900089763, 2.3322241000132635, 2.931673499988392, 2.032431099913083, 2.5827882000012323, 3.098484499962069, 2.1983819999732077, 3.6324259999673814, 2.748561199987307, 2.716066399938427, 2.932921399944462, 2.3160394000587985, 2.0819980000378564, 1.8488396999891847, 5.231566399917938, 1.8320555000100285, 2.015644900035113, 1.448403700022027, 1.7659660000354052, 1.2314894000301138, 1.515285599976778, 1.8822721000760794, 2.564797700033523, 2.7825435999548063, 1.6818620000267401, 1.3311472999630496, 1.482168099959381, 2.4149961000075564, 2.3654080000706017, 1.6826235998887569, 1.515520100016147, 2.5491708999034017, 1.0653029000386596, 1.5128651999402791]","[7.50050960003864, 8.148248599958606, 4.632638300070539, 6.048224200028926, 9.614273000042886, 5.6819653999991715, 4.564603499951772, 5.898328999988735, 2.965251899906434, 2.3326525000156835, 8.198397100088187, 3.7486757000442594, 3.5651323999045417, 3.031870000064373, 3.5809601000510156, 2.332234000088647, 2.931681700050831, 2.032439099973999, 2.5827989999670535, 3.0984959000488743, 2.1983917000470683, 3.6324376999400556, 2.748571499949321, 2.7160768000176176, 2.9329311000183225, 2.316050500026904, 2.0820058999815956, 1.8488503000698984, 5.231573799974285, 1.8320637999568135, 2.0156586000230163, 1.4484117000829428, 1.765975399990566, 1.2314973000902683, 1.5152951000491157, 1.8822809000266716, 2.5648185999598354, 2.7825550000416115, 1.681870499975048, 1.331153200007975, 1.482177099911496, 2.415010099997744, 2.365417300025001, 1.682641499908641, 1.5155303999781609, 2.549177599954419, 1.065312199993059, 1.512875499902293]",,023697,001,2022-11-08_16h01.02.077,tutorial07,2022.2.2,60.03871294935459,
0.7,1000.0,exp,4,0,48,8,309.8122289000312,310.8121367000276,310.8121367000276,310.8121367000276,space,1.799056199961342,313.32851711999393,313.6286758000497,313.6286758000497,313.6286758000497,66,49,"[7.500491500017233, 8.148237899993546, 4.632625599973835, 6.048216600087471, 9.614266699994914, 5.6819542000303045, 4.5645972999045625, 5.898321399930865, 2.965241799945943, 2.3326427000574768, 8.19838630000595, 3.748666499974206, 3.565124399960041, 3.03186220000498, 3.580949900089763, 2.3322241000132635, 2.931673499988392, 2.032431099913083, 2.5827882000012323, 3.098484499962069, 2.1983819999732077, 3.6324259999673814, 2.748561199987307, 2.716066399938427, 2.932921399944462, 2.3160394000587985, 2.0819980000378564, 1.8488396999891847, 5.231566399917938, 1.8320555000100285, 2.015644900035113, 1.448403700022027, 1.7659660000354052, 1.2314894000301138, 1.515285599976778, 1.8822721000760794, 2.564797700033523, 2.7825435999548063, 1.6818620000267401, 1.3311472999630496, 1.482168099959381, 2.4149961000075564, 2.3654080000706017, 1.6826235998887569, 1.515520100016147, 2.5491708999034017, 1.0653029000386596, 1.5128651999402791, 1.0487734000198543]","[7.50050960003864, 8.148248599958606, 4.632638300070539, 6.048224200028926, 9.614273000042886, 5.6819653999991715, 4.564603499951772, 5.898328999988735, 2.965251899906434, 2.3326525000156835, 8.198397100088187, 3.7486757000442594, 3.5651323999045417, 3.031870000064373, 3.5809601000510156, 2.332234000088647, 2.931681700050831, 2.032439099973999, 2.5827989999670535, 3.0984959000488743, 2.1983917000470683, 3.6324376999400556, 2.748571499949321, 2.7160768000176176, 2.9329311000183225, 2.316050500026904, 2.0820058999815956, 1.8488503000698984, 5.231573799974285, 1.8320637999568135, 2.0156586000230163, 1.4484117000829428, 1.765975399990566, 1.2314973000902683, 1.5152951000491157, 1.8822809000266716, 2.5648185999598354, 2.7825550000416115, 1.681870499975048, 1.331153200007975, 1.482177099911496, 2.415010099997744, 2.365417300025001, 1.682641499908641, 1.5155303999781609, 2.549177599954419, 1.065312199993059, 1.512875499902293, 1.0487821999704465]",,023697,001,2022-11-08_16h01.02.077,tutorial07,2022.2.2,60.03871294935459,
0.1,1000.0,exp,4,1,49,3,314.6787241999991,315.6785807000706,315.6785807000706,315.6785807000706,space,1.5797013000119478,317.37852862001165,317.67858080007136,317.67858080007136,317.67858080007136,45,50,"[7.500491500017233, 8.148237899993546, 4.632625599973835, 6.048216600087471, 9.614266699994914, 5.6819542000303045, 4.5645972999045625, 5.898321399930865, 2.965241799945943, 2.3326427000574768, 8.19838630000595, 3.748666499974206, 3.565124399960041, 3.03186220000498, 3.580949900089763, 2.3322241000132635, 2.931673499988392, 2.032431099913083, 2.5827882000012323, 3.098484499962069, 2.1983819999732077, 3.6324259999673814, 2.748561199987307, 2.716066399938427, 2.932921399944462, 2.3160394000587985, 2.0819980000378564, 1.8488396999891847, 5.231566399917938, 1.8320555000100285, 2.015644900035113, 1.448403700022027, 1.7659660000354052, 1.2314894000301138, 1.515285599976778, 1.8822721000760794, 2.564797700033523, 2.7825435999548063, 1.6818620000267401, 1.3311472999630496, 1.482168099959381, 2.4149961000075564, 2.3654080000706017, 1.6826235998887569, 1.515520100016147, 2.5491708999034017, 1.0653029000386596, 1.5128651999402791, 1.0487734000198543, 1.7321847999701276]","[7.50050960003864, 8.148248599958606, 4.632638300070539, 6.048224200028926, 9.614273000042886, 5.6819653999991715, 4.564603499951772, 5.898328999988735, 2.965251899906434, 2.3326525000156835, 8.198397100088187, 3.7486757000442594, 3.5651323999045417, 3.031870000064373, 3.5809601000510156, 2.332234000088647, 2.931681700050831, 2.032439099973999, 2.5827989999670535, 3.0984959000488743, 2.1983917000470683, 3.6324376999400556, 2.748571499949321, 2.7160768000176176, 2.9329311000183225, 2.316050500026904, 2.0820058999815956, 1.8488503000698984, 5.231573799974285, 1.8320637999568135, 2.0156586000230163, 1.4484117000829428, 1.765975399990566, 1.2314973000902683, 1.5152951000491157, 1.8822809000266716, 2.5648185999598354, 2.7825550000416115, 1.681870499975048, 1.331153200007975, 1.482177099911496, 2.415010099997744, 2.365417300025001, 1.682641499908641, 1.5155303999781609, 2.549177599954419, 1.065312199993059, 1.512875499902293, 1.0487821999704465, 1.7321952000493184]",,023697,001,2022-11-08_16h01.02.077,tutorial07,2022.2.2,60.03871294935459,
0.4,400.0,unexp,4,2,50,1,319.4118333000224,320.4117477000691,320.4117477000691,320.4117477000691,space,2.799321200000122,323.6284012200893,323.9284078000346,323.9284078000346,323.9284078000346,65,51,"[7.500491500017233, 8.148237899993546, 4.632625599973835, 6.048216600087471, 9.614266699994914, 5.6819542000303045, 4.5645972999045625, 5.898321399930865, 2.965241799945943, 2.3326427000574768, 8.19838630000595, 3.748666499974206, 3.565124399960041, 3.03186220000498, 3.580949900089763, 2.3322241000132635, 2.931673499988392, 2.032431099913083, 2.5827882000012323, 3.098484499962069, 2.1983819999732077, 3.6324259999673814, 2.748561199987307, 2.716066399938427, 2.932921399944462, 2.3160394000587985, 2.0819980000378564, 1.8488396999891847, 5.231566399917938, 1.8320555000100285, 2.015644900035113, 1.448403700022027, 1.7659660000354052, 1.2314894000301138, 1.515285599976778, 1.8822721000760794, 2.564797700033523, 2.7825435999548063, 1.6818620000267401, 1.3311472999630496, 1.482168099959381, 2.4149961000075564, 2.3654080000706017, 1.6826235998887569, 1.515520100016147, 2.5491708999034017, 1.0653029000386596, 1.5128651999402791, 1.0487734000198543, 1.7321847999701276, 3.0497324999887496]","[7.50050960003864, 8.148248599958606, 4.632638300070539, 6.048224200028926, 9.614273000042886, 5.6819653999991715, 4.564603499951772, 5.898328999988735, 2.965251899906434, 2.3326525000156835, 8.198397100088187, 3.7486757000442594, 3.5651323999045417, 3.031870000064373, 3.5809601000510156, 2.332234000088647, 2.931681700050831, 2.032439099973999, 2.5827989999670535, 3.0984959000488743, 2.1983917000470683, 3.6324376999400556, 2.748571499949321, 2.7160768000176176, 2.9329311000183225, 2.316050500026904, 2.0820058999815956, 1.8488503000698984, 5.231573799974285, 1.8320637999568135, 2.0156586000230163, 1.4484117000829428, 1.765975399990566, 1.2314973000902683, 1.5152951000491157, 1.8822809000266716, 2.5648185999598354, 2.7825550000416115, 1.681870499975048, 1.331153200007975, 1.482177099911496, 2.415010099997744, 2.365417300025001, 1.682641499908641, 1.5155303999781609, 2.549177599954419, 1.065312199993059, 1.512875499902293, 1.0487821999704465, 1.7321952000493184, 3.049741599941626]",,023697,001,2022-11-08_16h01.02.077,tutorial07,2022.2.2,60.03871294935459,
0.4,1000.0,exp,4,3,51,4,326.9783007000806,327.97824080009013,327.97824080009013,327.97824080009013,space,0.5165720999939367,328.91148522008444,329.2112865000963,329.2112865000963,329.2112865000963,31,52,"[7.500491500017233, 8.148237899993546, 4.632625599973835, 6.048216600087471, 9.614266699994914, 5.6819542000303045, 4.5645972999045625, 5.898321399930865, 2.965241799945943, 2.3326427000574768, 8.19838630000595, 3.748666499974206, 3.565124399960041, 3.03186220000498, 3.580949900089763, 2.3322241000132635, 2.931673499988392, 2.032431099913083, 2.5827882000012323, 3.098484499962069, 2.1983819999732077, 3.6324259999673814, 2.748561199987307, 2.716066399938427, 2.932921399944462, 2.3160394000587985, 2.0819980000378564, 1.8488396999891847, 5.231566399917938, 1.8320555000100285, 2.015644900035113, 1.448403700022027, 1.7659660000354052, 1.2314894000301138, 1.515285599976778, 1.8822721000760794, 2.564797700033523, 2.7825435999548063, 1.6818620000267401, 1.3311472999630496, 1.482168099959381, 2.4149961000075564, 2.3654080000706017, 1.6826235998887569, 1.515520100016147, 2.5491708999034017, 1.0653029000386596, 1.5128651999402791, 1.0487734000198543, 1.7321847999701276, 3.0497324999887496, 2.6656315000727773]","[7.50050960003864, 8.148248599958606, 4.632638300070539, 6.048224200028926, 9.614273000042886, 5.6819653999991715, 4.564603499951772, 5.898328999988735, 2.965251899906434, 2.3326525000156835, 8.198397100088187, 3.7486757000442594, 3.5651323999045417, 3.031870000064373, 3.5809601000510156, 2.332234000088647, 2.931681700050831, 2.032439099973999, 2.5827989999670535, 3.0984959000488743, 2.1983917000470683, 3.6324376999400556, 2.748571499949321, 2.7160768000176176, 2.9329311000183225, 2.316050500026904, 2.0820058999815956, 1.8488503000698984, 5.231573799974285, 1.8320637999568135, 2.0156586000230163, 1.4484117000829428, 1.765975399990566, 1.2314973000902683, 1.5152951000491157, 1.8822809000266716, 2.5648185999598354, 2.7825550000416115, 1.681870499975048, 1.331153200007975, 1.482177099911496, 2.415010099997744, 2.365417300025001, 1.682641499908641, 1.5155303999781609, 2.549177599954419, 1.065312199993059, 1.512875499902293, 1.0487821999704465, 1.7321952000493184, 3.049741599941626, 2.665641100029461]",,023697,001,2022-11-08_16h01.02.077,tutorial07,2022.2.2,60.03871294935459,
0.1,400.0,unexp,4,4,52,0,331.87789300002623,332.8779357000021,332.8779357000021,332.8779357000021,space,0.8457493999740109,333.84449892003323,334.14520880009513,334.14520880009513,334.14520880009513,33 ,53,"[7.500491500017233, 8.148237899993546, 4.632625599973835, 6.048216600087471, 9.614266699994914, 5.6819542000303045, 4.5645972999045625, 5.898321399930865, 2.965241799945943, 2.3326427000574768, 8.19838630000595, 3.748666499974206, 3.565124399960041, 3.03186220000498, 3.580949900089763, 2.3322241000132635, 2.931673499988392, 2.032431099913083, 2.5827882000012323, 3.098484499962069, 2.1983819999732077, 3.6324259999673814, 2.748561199987307, 2.716066399938427, 2.932921399944462, 2.3160394000587985, 2.0819980000378564, 1.8488396999891847, 5.231566399917938, 1.8320555000100285, 2.015644900035113, 1.448403700022027, 1.7659660000354052, 1.2314894000301138, 1.515285599976778, 1.8822721000760794, 2.564797700033523, 2.7825435999548063, 1.6818620000267401, 1.3311472999630496, 1.482168099959381, 2.4149961000075564, 2.3654080000706017, 1.6826235998887569, 1.515520100016147, 2.5491708999034017, 1.0653029000386596, 1.5128651999402791, 1.0487734000198543, 1.7321847999701276, 3.0497324999887496, 2.6656315000727773, 2.06474669999443]","[7.50050960003864, 8.148248599958606, 4.632638300070539, 6.048224200028926, 9.614273000042886, 5.6819653999991715, 4.564603499951772, 5.898328999988735, 2.965251899906434, 2.3326525000156835, 8.198397100088187, 3.7486757000442594, 3.5651323999045417, 3.031870000064373, 3.5809601000510156, 2.332234000088647, 2.931681700050831, 2.032439099973999, 2.5827989999670535, 3.0984959000488743, 2.1983917000470683, 3.6324376999400556, 2.748571499949321, 2.7160768000176176, 2.9329311000183225, 2.316050500026904, 2.0820058999815956, 1.8488503000698984, 5.231573799974285, 1.8320637999568135, 2.0156586000230163, 1.4484117000829428, 1.765975399990566, 1.2314973000902683, 1.5152951000491157, 1.8822809000266716, 2.5648185999598354, 2.7825550000416115, 1.681870499975048, 1.331153200007975, 1.482177099911496, 2.415010099997744, 2.365417300025001, 1.682641499908641, 1.5155303999781609, 2.549177599954419, 1.065312199993059, 1.512875499902293, 1.0487821999704465, 1.7321952000493184, 3.049741599941626, 2.665641100029461, 2.06475809996482]",334.14520880009513,023697,001,2022-11-08_16h01.02.077,tutorial07,2022.2.2,60.03871294935459,
0.4,1000.0,exp,4,5,53,10,336.21102150005754,337.21109050000086,337.21109050000086,337.21109050000086,space,0.4641610999824479,338.09429602000165,338.3947287000483,338.3947287000483,338.3947287000483,40,54,"[7.500491500017233, 8.148237899993546, 4.632625599973835, 6.048216600087471, 9.614266699994914, 5.6819542000303045, 4.5645972999045625, 5.898321399930865, 2.965241799945943, 2.3326427000574768, 8.19838630000595, 3.748666499974206, 3.565124399960041, 3.03186220000498, 3.580949900089763, 2.3322241000132635, 2.931673499988392, 2.032431099913083, 2.5827882000012323, 3.098484499962069, 2.1983819999732077, 3.6324259999673814, 2.748561199987307, 2.716066399938427, 2.932921399944462, 2.3160394000587985, 2.0819980000378564, 1.8488396999891847, 5.231566399917938, 1.8320555000100285, 2.015644900035113, 1.448403700022027, 1.7659660000354052, 1.2314894000301138, 1.515285599976778, 1.8822721000760794, 2.564797700033523, 2.7825435999548063, 1.6818620000267401, 1.3311472999630496, 1.482168099959381, 2.4149961000075564, 2.3654080000706017, 1.6826235998887569, 1.515520100016147, 2.5491708999034017, 1.0653029000386596, 1.5128651999402791, 1.0487734000198543, 1.7321847999701276, 3.0497324999887496, 2.6656315000727773, 2.06474669999443, 2.7482815999537706]","[7.50050960003864, 8.148248599958606, 4.632638300070539, 6.048224200028926, 9.614273000042886, 5.6819653999991715, 4.564603499951772, 5.898328999988735, 2.965251899906434, 2.3326525000156835, 8.198397100088187, 3.7486757000442594, 3.5651323999045417, 3.031870000064373, 3.5809601000510156, 2.332234000088647, 2.931681700050831, 2.032439099973999, 2.5827989999670535, 3.0984959000488743, 2.1983917000470683, 3.6324376999400556, 2.748571499949321, 2.7160768000176176, 2.9329311000183225, 2.316050500026904, 2.0820058999815956, 1.8488503000698984, 5.231573799974285, 1.8320637999568135, 2.0156586000230163, 1.4484117000829428, 1.765975399990566, 1.2314973000902683, 1.5152951000491157, 1.8822809000266716, 2.5648185999598354, 2.7825550000416115, 1.681870499975048, 1.331153200007975, 1.482177099911496, 2.415010099997744, 2.365417300025001, 1.682641499908641, 1.5155303999781609, 2.549177599954419, 1.065312199993059, 1.512875499902293, 1.0487821999704465, 1.7321952000493184, 3.049741599941626, 2.665641100029461, 2.06475809996482, 2.7482918000314385]",,023697,001,2022-11-08_16h01.02.077,tutorial07,2022.2.2,60.03871294935459,
0.1,1000.0,exp,4,6,54,6,341.1442562000593,342.1442834000336,342.1442834000336,342.1442834000336,space,0.6689601000398397,342.944185220066,343.2452858000761,343.2452858000761,343.2452858000761,65,55,"[7.500491500017233, 8.148237899993546, 4.632625599973835, 6.048216600087471, 9.614266699994914, 5.6819542000303045, 4.5645972999045625, 5.898321399930865, 2.965241799945943, 2.3326427000574768, 8.19838630000595, 3.748666499974206, 3.565124399960041, 3.03186220000498, 3.580949900089763, 2.3322241000132635, 2.931673499988392, 2.032431099913083, 2.5827882000012323, 3.098484499962069, 2.1983819999732077, 3.6324259999673814, 2.748561199987307, 2.716066399938427, 2.932921399944462, 2.3160394000587985, 2.0819980000378564, 1.8488396999891847, 5.231566399917938, 1.8320555000100285, 2.015644900035113, 1.448403700022027, 1.7659660000354052, 1.2314894000301138, 1.515285599976778, 1.8822721000760794, 2.564797700033523, 2.7825435999548063, 1.6818620000267401, 1.3311472999630496, 1.482168099959381, 2.4149961000075564, 2.3654080000706017, 1.6826235998887569, 1.515520100016147, 2.5491708999034017, 1.0653029000386596, 1.5128651999402791, 1.0487734000198543, 1.7321847999701276, 3.0497324999887496, 2.6656315000727773, 2.06474669999443, 2.7482815999537706, 2.315444100066088]","[7.50050960003864, 8.148248599958606, 4.632638300070539, 6.048224200028926, 9.614273000042886, 5.6819653999991715, 4.564603499951772, 5.898328999988735, 2.965251899906434, 2.3326525000156835, 8.198397100088187, 3.7486757000442594, 3.5651323999045417, 3.031870000064373, 3.5809601000510156, 2.332234000088647, 2.931681700050831, 2.032439099973999, 2.5827989999670535, 3.0984959000488743, 2.1983917000470683, 3.6324376999400556, 2.748571499949321, 2.7160768000176176, 2.9329311000183225, 2.316050500026904, 2.0820058999815956, 1.8488503000698984, 5.231573799974285, 1.8320637999568135, 2.0156586000230163, 1.4484117000829428, 1.765975399990566, 1.2314973000902683, 1.5152951000491157, 1.8822809000266716, 2.5648185999598354, 2.7825550000416115, 1.681870499975048, 1.331153200007975, 1.482177099911496, 2.415010099997744, 2.365417300025001, 1.682641499908641, 1.5155303999781609, 2.549177599954419, 1.065312199993059, 1.512875499902293, 1.0487821999704465, 1.7321952000493184, 3.049741599941626, 2.665641100029461, 2.06475809996482, 2.7482918000314385, 2.315452400012873]",343.2452858000761,023697,001,2022-11-08_16h01.02.077,tutorial07,2022.2.2,60.03871294935459,
0.7,1000.0,exp,4,7,55,5,345.56086450000294,346.56079020001926,346.56079020001926,346.56079020001926,space,0.5239324000431225,347.8106574200909,348.110845600022,348.110845600022,348.110845600022,44,56,"[7.500491500017233, 8.148237899993546, 4.632625599973835, 6.048216600087471, 9.614266699994914, 5.6819542000303045, 4.5645972999045625, 5.898321399930865, 2.965241799945943, 2.3326427000574768, 8.19838630000595, 3.748666499974206, 3.565124399960041, 3.03186220000498, 3.580949900089763, 2.3322241000132635, 2.931673499988392, 2.032431099913083, 2.5827882000012323, 3.098484499962069, 2.1983819999732077, 3.6324259999673814, 2.748561199987307, 2.716066399938427, 2.932921399944462, 2.3160394000587985, 2.0819980000378564, 1.8488396999891847, 5.231566399917938, 1.8320555000100285, 2.015644900035113, 1.448403700022027, 1.7659660000354052, 1.2314894000301138, 1.515285599976778, 1.8822721000760794, 2.564797700033523, 2.7825435999548063, 1.6818620000267401, 1.3311472999630496, 1.482168099959381, 2.4149961000075564, 2.3654080000706017, 1.6826235998887569, 1.515520100016147, 2.5491708999034017, 1.0653029000386596, 1.5128651999402791, 1.0487734000198543, 1.7321847999701276, 3.0497324999887496, 2.6656315000727773, 2.06474669999443, 2.7482815999537706, 2.315444100066088, 1.4651226000860333]","[7.50050960003864, 8.148248599958606, 4.632638300070539, 6.048224200028926, 9.614273000042886, 5.6819653999991715, 4.564603499951772, 5.898328999988735, 2.965251899906434, 2.3326525000156835, 8.198397100088187, 3.7486757000442594, 3.5651323999045417, 3.031870000064373, 3.5809601000510156, 2.332234000088647, 2.931681700050831, 2.032439099973999, 2.5827989999670535, 3.0984959000488743, 2.1983917000470683, 3.6324376999400556, 2.748571499949321, 2.7160768000176176, 2.9329311000183225, 2.316050500026904, 2.0820058999815956, 1.8488503000698984, 5.231573799974285, 1.8320637999568135, 2.0156586000230163, 1.4484117000829428, 1.765975399990566, 1.2314973000902683, 1.5152951000491157, 1.8822809000266716, 2.5648185999598354, 2.7825550000416115, 1.681870499975048, 1.331153200007975, 1.482177099911496, 2.415010099997744, 2.365417300025001, 1.682641499908641, 1.5155303999781609, 2.549177599954419, 1.065312199993059, 1.512875499902293, 1.0487821999704465, 1.7321952000493184, 3.049741599941626, 2.665641100029461, 2.06475809996482, 2.7482918000314385, 2.315452400012873, 1.4651322000427172]",,023697,001,2022-11-08_16h01.02.077,tutorial07,2022.2.2,60.03871294935459,
0.7,1000.0,exp,4,8,56,11,349.5774642000906,350.57733420003206,350.57733420003206,350.57733420003206,space,0.9220148000167683,352.2272184200236,352.52723830007017,352.52723830007017,352.52723830007017,34,57,"[7.500491500017233, 8.148237899993546, 4.632625599973835, 6.048216600087471, 9.614266699994914, 5.6819542000303045, 4.5645972999045625, 5.898321399930865, 2.965241799945943, 2.3326427000574768, 8.19838630000595, 3.748666499974206, 3.565124399960041, 3.03186220000498, 3.580949900089763, 2.3322241000132635, 2.931673499988392, 2.032431099913083, 2.5827882000012323, 3.098484499962069, 2.1983819999732077, 3.6324259999673814, 2.748561199987307, 2.716066399938427, 2.932921399944462, 2.3160394000587985, 2.0819980000378564, 1.8488396999891847, 5.231566399917938, 1.8320555000100285, 2.015644900035113, 1.448403700022027, 1.7659660000354052, 1.2314894000301138, 1.515285599976778, 1.8822721000760794, 2.564797700033523, 2.7825435999548063, 1.6818620000267401, 1.3311472999630496, 1.482168099959381, 2.4149961000075564, 2.3654080000706017, 1.6826235998887569, 1.515520100016147, 2.5491708999034017, 1.0653029000386596, 1.5128651999402791, 1.0487734000198543, 1.7321847999701276, 3.0497324999887496, 2.6656315000727773, 2.06474669999443, 2.7482815999537706, 2.315444100066088, 1.4651226000860333, 2.1989382000174373]","[7.50050960003864, 8.148248599958606, 4.632638300070539, 6.048224200028926, 9.614273000042886, 5.6819653999991715, 4.564603499951772, 5.898328999988735, 2.965251899906434, 2.3326525000156835, 8.198397100088187, 3.7486757000442594, 3.5651323999045417, 3.031870000064373, 3.5809601000510156, 2.332234000088647, 2.931681700050831, 2.032439099973999, 2.5827989999670535, 3.0984959000488743, 2.1983917000470683, 3.6324376999400556, 2.748571499949321, 2.7160768000176176, 2.9329311000183225, 2.316050500026904, 2.0820058999815956, 1.8488503000698984, 5.231573799974285, 1.8320637999568135, 2.0156586000230163, 1.4484117000829428, 1.765975399990566, 1.2314973000902683, 1.5152951000491157, 1.8822809000266716, 2.5648185999598354, 2.7825550000416115, 1.681870499975048, 1.331153200007975, 1.482177099911496, 2.415010099997744, 2.365417300025001, 1.682641499908641, 1.5155303999781609, 2.549177599954419, 1.065312199993059, 1.512875499902293, 1.0487821999704465, 1.7321952000493184, 3.049741599941626, 2.665641100029461, 2.06475809996482, 2.7482918000314385, 2.315452400012873, 1.4651322000427172, 2.1989464999642223]",352.52723830007017,023697,001,2022-11-08_16h01.02.077,tutorial07,2022.2.2,60.03871294935459,
0.4,1000.0,exp,4,9,57,7,354.7272103000432,355.72706900001504,355.72706900001504,355.72706900001504,space,0.4292751000029966,356.57725192002255,356.87795450002886,356.87795450002886,356.87795450002886,56,58,"[7.500491500017233, 8.148237899993546, 4.632625599973835, 6.048216600087471, 9.614266699994914, 5.6819542000303045, 4.5645972999045625, 5.898321399930865, 2.965241799945943, 2.3326427000574768, 8.19838630000595, 3.748666499974206, 3.565124399960041, 3.03186220000498, 3.580949900089763, 2.3322241000132635, 2.931673499988392, 2.032431099913083, 2.5827882000012323, 3.098484499962069, 2.1983819999732077, 3.6324259999673814, 2.748561199987307, 2.716066399938427, 2.932921399944462, 2.3160394000587985, 2.0819980000378564, 1.8488396999891847, 5.231566399917938, 1.8320555000100285, 2.015644900035113, 1.448403700022027, 1.7659660000354052, 1.2314894000301138, 1.515285599976778, 1.8822721000760794, 2.564797700033523, 2.7825435999548063, 1.6818620000267401, 1.3311472999630496, 1.482168099959381, 2.4149961000075564, 2.3654080000706017, 1.6826235998887569, 1.515520100016147, 2.5491708999034017, 1.0653029000386596, 1.5128651999402791, 1.0487734000198543, 1.7321847999701276, 3.0497324999887496, 2.6656315000727773, 2.06474669999443, 2.7482815999537706, 2.315444100066088, 1.4651226000860333, 2.1989382000174373, 1.7818695000605658]","[7.50050960003864, 8.148248599958606, 4.632638300070539, 6.048224200028926, 9.614273000042886, 5.6819653999991715, 4.564603499951772, 5.898328999988735, 2.965251899906434, 2.3326525000156835, 8.198397100088187, 3.7486757000442594, 3.5651323999045417, 3.031870000064373, 3.5809601000510156, 2.332234000088647, 2.931681700050831, 2.032439099973999, 2.5827989999670535, 3.0984959000488743, 2.1983917000470683, 3.6324376999400556, 2.748571499949321, 2.7160768000176176, 2.9329311000183225, 2.316050500026904, 2.0820058999815956, 1.8488503000698984, 5.231573799974285, 1.8320637999568135, 2.0156586000230163, 1.4484117000829428, 1.765975399990566, 1.2314973000902683, 1.5152951000491157, 1.8822809000266716, 2.5648185999598354, 2.7825550000416115, 1.681870499975048, 1.331153200007975, 1.482177099911496, 2.415010099997744, 2.365417300025001, 1.682641499908641, 1.5155303999781609, 2.549177599954419, 1.065312199993059, 1.512875499902293, 1.0487821999704465, 1.7321952000493184, 3.049741599941626, 2.665641100029461, 2.06475809996482, 2.7482918000314385, 2.315452400012873, 1.4651322000427172, 2.1989464999642223, 1.7818770000012591]",356.87795450002886,023697,001,2022-11-08_16h01.02.077,tutorial07,2022.2.2,60.03871294935459,
0.1,1000.0,exp,4,10,58,9,358.6603542000521,359.66024180001114,359.66024180001114,359.66024180001114,space,1.0921241999603808,360.8769733200432,361.17681060009636,361.17681060009636,361.17681060009636,77,59,"[7.500491500017233, 8.148237899993546, 4.632625599973835, 6.048216600087471, 9.614266699994914, 5.6819542000303045, 4.5645972999045625, 5.898321399930865, 2.965241799945943, 2.3326427000574768, 8.19838630000595, 3.748666499974206, 3.565124399960041, 3.03186220000498, 3.580949900089763, 2.3322241000132635, 2.931673499988392, 2.032431099913083, 2.5827882000012323, 3.098484499962069, 2.1983819999732077, 3.6324259999673814, 2.748561199987307, 2.716066399938427, 2.932921399944462, 2.3160394000587985, 2.0819980000378564, 1.8488396999891847, 5.231566399917938, 1.8320555000100285, 2.015644900035113, 1.448403700022027, 1.7659660000354052, 1.2314894000301138, 1.515285599976778, 1.8822721000760794, 2.564797700033523, 2.7825435999548063, 1.6818620000267401, 1.3311472999630496, 1.482168099959381, 2.4149961000075564, 2.3654080000706017, 1.6826235998887569, 1.515520100016147, 2.5491708999034017, 1.0653029000386596, 1.5128651999402791, 1.0487734000198543, 1.7321847999701276, 3.0497324999887496, 2.6656315000727773, 2.06474669999443, 2.7482815999537706, 2.315444100066088, 1.4651226000860333, 2.1989382000174373, 1.7818695000605658, 1.531961499946192]","[7.50050960003864, 8.148248599958606, 4.632638300070539, 6.048224200028926, 9.614273000042886, 5.6819653999991715, 4.564603499951772, 5.898328999988735, 2.965251899906434, 2.3326525000156835, 8.198397100088187, 3.7486757000442594, 3.5651323999045417, 3.031870000064373, 3.5809601000510156, 2.332234000088647, 2.931681700050831, 2.032439099973999, 2.5827989999670535, 3.0984959000488743, 2.1983917000470683, 3.6324376999400556, 2.748571499949321, 2.7160768000176176, 2.9329311000183225, 2.316050500026904, 2.0820058999815956, 1.8488503000698984, 5.231573799974285, 1.8320637999568135, 2.0156586000230163, 1.4484117000829428, 1.765975399990566, 1.2314973000902683, 1.5152951000491157, 1.8822809000266716, 2.5648185999598354, 2.7825550000416115, 1.681870499975048, 1.331153200007975, 1.482177099911496, 2.415010099997744, 2.365417300025001, 1.682641499908641, 1.5155303999781609, 2.549177599954419, 1.065312199993059, 1.512875499902293, 1.0487821999704465, 1.7321952000493184, 3.049741599941626, 2.665641100029461, 2.06475809996482, 2.7482918000314385, 2.315452400012873, 1.4651322000427172, 2.1989464999642223, 1.7818770000012591, 1.5319714000215754]",361.17681060009636,023697,001,2022-11-08_16h01.02.077,tutorial07,2022.2.2,60.03871294935459,
0.7,400.0,unexp,4,11,59,2,362.71035840001423,363.71016590006184,363.71016590006184,363.71016590006184,space,1.6084851999767125,366.04337372003357,366.3435035001021,366.3435035001021,366.3435035001021,76  ,60,"[7.500491500017233, 8.148237899993546, 4.632625599973835, 6.048216600087471, 9.614266699994914, 5.6819542000303045, 4.5645972999045625, 5.898321399930865, 2.965241799945943, 2.3326427000574768, 8.19838630000595, 3.748666499974206, 3.565124399960041, 3.03186220000498, 3.580949900089763, 2.3322241000132635, 2.931673499988392, 2.032431099913083, 2.5827882000012323, 3.098484499962069, 2.1983819999732077, 3.6324259999673814, 2.748561199987307, 2.716066399938427, 2.932921399944462, 2.3160394000587985, 2.0819980000378564, 1.8488396999891847, 5.231566399917938, 1.8320555000100285, 2.015644900035113, 1.448403700022027, 1.7659660000354052, 1.2314894000301138, 1.515285599976778, 1.8822721000760794, 2.564797700033523, 2.7825435999548063, 1.6818620000267401, 1.3311472999630496, 1.482168099959381, 2.4149961000075564, 2.3654080000706017, 1.6826235998887569, 1.515520100016147, 2.5491708999034017, 1.0653029000386596, 1.5128651999402791, 1.0487734000198543, 1.7321847999701276, 3.0497324999887496, 2.6656315000727773, 2.06474669999443, 2.7482815999537706, 2.315444100066088, 1.4651226000860333, 2.1989382000174373, 1.7818695000605658, 1.531961499946192, 1.848795700003393]","[7.50050960003864, 8.148248599958606, 4.632638300070539, 6.048224200028926, 9.614273000042886, 5.6819653999991715, 4.564603499951772, 5.898328999988735, 2.965251899906434, 2.3326525000156835, 8.198397100088187, 3.7486757000442594, 3.5651323999045417, 3.031870000064373, 3.5809601000510156, 2.332234000088647, 2.931681700050831, 2.032439099973999, 2.5827989999670535, 3.0984959000488743, 2.1983917000470683, 3.6324376999400556, 2.748571499949321, 2.7160768000176176, 2.9329311000183225, 2.316050500026904, 2.0820058999815956, 1.8488503000698984, 5.231573799974285, 1.8320637999568135, 2.0156586000230163, 1.4484117000829428, 1.765975399990566, 1.2314973000902683, 1.5152951000491157, 1.8822809000266716, 2.5648185999598354, 2.7825550000416115, 1.681870499975048, 1.331153200007975, 1.482177099911496, 2.415010099997744, 2.365417300025001, 1.682641499908641, 1.5155303999781609, 2.549177599954419, 1.065312199993059, 1.512875499902293, 1.0487821999704465, 1.7321952000493184, 3.049741599941626, 2.665641100029461, 2.06475809996482, 2.7482918000314385, 2.315452400012873, 1.4651322000427172, 2.1989464999642223, 1.7818770000012591, 1.5319714000215754, 1.8488032000605017]",,023697,001,2022-11-08_16h01.02.077,tutorial07,2022.2.2,60.03871294935459,
